index,TIMESTAMP,TRUE_POSITION_X,TRUE_POSITION_Y,TRUE_POSITION_Z,SPEED,ACCELERATION_X,ACCELERATION_Y,ACCELERATION_Z,DIRECTION_X,DIRECTION_Y,DIRECTION_Z
0,9,-0.6124080846091824,-1.2171945819828736,0.5,79.39640753735287,-0.0012192780249501737,0.016961201672657092,0.01427928882868236,0.0014535739106847545,-0.001122809889075688,-0.0014423295075693282
1,18,-0.39186250811653556,-1.2171945819828736,0.5,79.39640753735287,0.0057852736610821765,-0.01175393976798708,0.014611509533397234,-0.009684112418149357,-0.004628292231828155,-0.005743437878230316
2,28,-0.1713169316238887,-1.2171945819828736,0.5,79.39640753735287,-0.0089868047258705,-0.005045254711560707,0.006513187207553566,-0.001808376934318113,0.0073614130139058155,0.010117555465850527
3,37,0.049228644868758165,-1.2171945819828736,0.5,79.39640753735287,0.016028563123066452,-0.01897095264245267,-0.006731739882271436,0.011305453324793047,-0.007440910867901264,-0.004406134159825015
4,47,0.26977422136140505,-1.2171945819828736,0.5,79.39640753735287,-0.010265154614188955,0.0028924133115892374,0.011182494682687448,-0.004643802143011859,-0.011066412913113421,-0.001445365924478668
5,56,0.4903197978540519,-1.2171945819828736,0.5,79.39640753735287,-0.004719969406078331,0.012980575622640383,0.0047341699332641134,-0.012290460481130853,-0.026235528355292796,0.008815863192764622
6,65,0.7108653743466987,-1.2171945819828736,0.5,79.39300694131724,0.009853088912368581,-0.015681814647426368,-0.0034759257933813237,-0.009675609520968862,0.020702720901923787,0.00011890249753682379
7,75,0.9314015047392465,-1.2171945819828736,0.5,79.3896063452816,-0.11410616686932759,-0.005586139503919731,-0.0013648986887040615,0.0020946618205093808,-0.010470557276597106,0.007021703862532345
8,85,1.1519281890316955,-1.2171945819828736,0.5,79.38620574924597,-0.07916609288181392,0.010030067194468282,0.016137548574743175,0.0025784359039848926,0.000910344553832692,-0.0026915565797172147
9,94,1.3724454272240454,-1.2171945819828736,0.5,79.38280515321034,-0.08758777917877426,-0.008061387193335925,0.008103868855341322,0.017613137569822693,0.002494437681657137,-0.0031481986961323307
10,103,1.5929532193162963,-1.2171945819828736,0.5,79.37940455717471,-0.09844237691946829,0.0049691407169810175,0.015705814846088635,0.004710847499770877,0.0043150621686692025,0.008522784161279677
11,113,1.8134515653084482,-1.2171945819828736,0.5,79.37600396113908,-0.09510535672334577,-0.007672927063310496,-0.006283706347443852,0.0008814416219875931,-0.005600638575082747,-0.0072540239421981945
12,122,2.033940465200501,-1.2171945819828736,0.5,79.37260336510344,-0.09348179524275392,-0.0029980828138939136,-0.007201638235474661,0.005663897209586761,0.004861098745231079,-0.00015634442579326213
13,132,2.254419918992455,-1.2171945819828736,0.5,79.36920276906781,-0.08794310792078572,-0.001562550678938772,0.0042113638500688964,0.014570862787459902,0.030996204159786246,-0.007960702527549464
14,141,2.47488992668431,-1.2171945819828736,0.5,79.36580217303218,-0.07881012861024174,0.010380030729795521,-0.017445373073670545,0.007036578345011014,0.015750954890091644,-0.0016739762280150554
15,151,2.6953504882760657,-1.2171945819828736,0.5,79.36240157699655,-0.08478307327521288,0.005726892175020602,-0.013974193496065716,-0.004800447812147947,0.0025591959419984877,0.019174588987018806
16,160,2.915801603767723,-1.2171945819828736,0.5,79.35900098096091,-0.10917647665311461,-0.0012949517507492225,0.019497029874456846,0.003927825462889449,0.004160984720202381,-0.009496840082066192
17,170,3.1362432731592813,-1.2171945819828736,0.5,79.35560038492528,-0.07803203614899698,0.01032636060003583,-0.0014611147483734532,0.005750529055697082,0.010976096534780584,-0.008575106247721924
18,179,3.3566754964507406,-1.2171945819828736,0.5,79.35219978888965,-0.09992564143270513,-0.00831049724672969,-0.0035467057373879765,-0.005294999007066994,0.006752903275947583,0.003242653837061374
19,188,3.577098273642101,-1.2171945819828736,0.5,79.34879919285402,-0.09688358422968871,0.006902773947350732,-0.006663330426947281,0.005471714069507003,-0.005255910675866752,-0.0022060212785104598
20,198,3.797511604733362,-1.2171945819828736,0.5,79.34539859681838,-0.0740868929105607,0.006658314243508507,-0.0042918099837090315,-0.010518524895026587,-0.007046285898692756,0.011296195902534624
21,207,4.017915489724524,-1.2171945819828736,0.5,79.34199800078275,-0.07630251762665864,0.005422960605310659,-0.009890879504066039,-0.00018244106888878523,0.010770523457818428,-0.0018605664959799046
22,217,4.238309928615587,-1.2171945819828736,0.5,79.33859740474712,-0.10528148069077811,-0.00010934454898498757,0.0006249570569875366,0.0007176444623385661,-0.005271044962426596,0.012307232085113145
23,226,4.458694921406551,-1.2171945819828736,0.5,79.33519680871149,-0.08490880094123479,0.007139850496961718,0.01119236170691156,0.01893534427836942,-0.009208530495692795,-0.010563034622380922
24,236,4.679070468097416,-1.2171945819828736,0.5,79.33179621267585,-0.10985665802622917,0.007798744812396627,0.007240614892028143,0.006458602378631176,-0.0061334612409765215,0.016810574936112068
25,245,4.8994365686881824,-1.2171945819828736,0.5,79.32839561664022,-0.09779291965294395,0.002515843397789751,0.0014898457233218831,-0.0036245546179504737,0.002619256501932419,-0.004825630104747822
26,255,5.11979322317885,-1.2171945819828736,0.5,79.32499502060459,-0.09683382831712305,0.00631852677139069,-0.01657891891848283,0.0018071434128613876,0.0004266071710273965,0.003232063261392674
27,264,5.340140431569418,-1.2171945819828736,0.5,79.32159442456896,-0.09914392508307514,-0.014111905545152856,-0.010987516813931803,-0.007663356405995068,-0.006342902666531122,0.007691788655903222
28,274,5.560478193859888,-1.2171945819828736,0.5,79.31819382853332,-0.09881081681487763,-0.02161148060796282,-0.003951845513354729,-0.0015965684530184915,-0.0011402167117111042,0.029417819499412818
29,283,5.780806510050258,-1.2171945819828736,0.5,79.31479323249769,-0.10116715935110025,0.004066455156972662,-0.005687632683776203,-0.013663512759295645,0.010413370687081869,-0.013485994920087244
30,293,6.00112538014053,-1.2171945819828736,0.5,79.31139263646206,-0.08934108847713415,0.0009893670824203237,-0.003846301419762605,0.006153994843889676,-0.0036744438380861937,-0.0016494998869480172
31,302,6.221434804130702,-1.2171945819828736,0.5,79.30799204042643,-0.08857583066113203,0.0006500864607754201,0.000847168422032872,-0.013495131833189875,0.003529388517231466,0.006996091444984899
32,312,6.4417347820207755,-1.2171945819828736,0.5,79.3045914443908,-0.07969104386556758,-0.004303800970527102,0.00361720208232407,0.011434946774729868,0.02456469545750358,-0.022792759260490146
33,321,6.66202531381075,-1.2171945819828736,0.5,79.30119084835516,-0.09846762638347684,0.0022372672613070765,-0.0022981631588151223,-0.014803460283601395,0.0145076842615148,-0.022202797014712998
34,330,6.882306399500625,-1.2171945819828736,0.5,79.29779025231953,-0.0993546651262423,0.0037952556630251127,0.010858951040157274,0.006471832878802886,0.004169464571236466,-0.011465426177719019
35,340,7.102578039090401,-1.2171945819828736,0.5,79.2943896562839,-0.1000818827879762,-0.015226337026764207,-0.0011405098731558966,-0.0037816422167482474,0.007800214264940444,0.00396205801646317
36,349,7.322840232580079,-1.2171945819828736,0.5,79.29098906024826,-0.11009707281276614,0.004711626754926621,-0.009925264840232201,-0.002562979540590144,0.006866236244100599,-0.00983075784901341
37,359,7.543092979969657,-1.2171945819828736,0.5,79.28758846421263,-0.08133711288803798,0.004697681500037598,0.006024503230527195,0.004428142292713275,-0.021012878524525755,0.021632270926227007
38,368,7.763336281259137,-1.2171945819828736,0.5,79.284187868177,-0.09077437347203574,-0.0024335142585012594,0.0006284047163680541,-0.009672187924786526,0.0010274130137179589,0.006671785334603845
39,378,7.983570136448517,-1.2171945819828736,0.5,79.28078727214137,-0.10239971971036264,-0.00542623281527754,0.001260074066244436,-0.004077938603621062,-0.00990150193514629,0.003987300167780435
40,387,8.203794545537798,-1.2171945819828736,0.5,79.27738667610573,-0.10050238555136809,0.0030396221870138246,0.000470994523202655,-0.007583979016022289,-0.010078430466935948,0.001849500299440958
41,397,8.42400950852698,-1.2171945819828736,0.5,79.2739860800701,-0.10227368355695111,-0.004028307548239425,0.004380521099006988,0.00619879241570388,-0.005726836578241174,-0.01109054309666098
42,406,8.644215025416065,-1.2171945819828736,0.5,79.27058548403447,-0.09843014482891872,0.006377150992081944,0.0010372701897729294,-0.006691566158233991,0.0041849673406054505,-0.002695878605599173
43,415,8.86441109620505,-1.2171945819828736,0.5,79.26718488799884,-0.08914101945855886,-0.012293121865520371,-0.0007159658139537726,0.00045020603481666743,0.012117973961112598,-0.0008575902330499515
44,425,9.084597720893935,-1.2171945819828736,0.5,79.2637842919632,-0.09125529666248017,0.0023923973452616362,0.0014032339938962468,-0.0030468068332219363,0.004790929707610811,0.003493195762549282
45,434,9.304774899482721,-1.2171945819828736,0.5,79.26038369592757,-0.09043578196805599,-0.0005740489517805406,-0.009718495083146908,-0.015502479999176066,-0.00410860963910357,-0.002965092945163024
46,444,9.52494263197141,-1.2171945819828736,0.5,79.25698309989194,-0.09155339366163008,0.006486375046847737,-0.024940623963167236,0.001624224555511293,-0.00041304441997222204,-0.0020649082260898546
47,453,9.745100918359999,-1.2171945819828736,0.5,79.25358250385631,-0.09198134189968979,0.0006360982427486337,0.003170136435188575,0.003473553410070904,0.015072266108576806,-0.0038366134126844036
48,463,9.965249758648488,-1.2171945819828736,0.5,79.25018190782068,-0.08205053884849837,0.016831793676440873,0.001678442919210163,-0.011016969571682595,0.003834001483119198,-0.01128252550615843
49,473,10.185389152836878,-1.2171945819828736,0.5,79.24678131178504,-0.09338699668220249,-0.019501054226394237,-0.004247414828150771,0.009966899467170416,-0.011812266327727953,-0.004705663407596435
50,482,10.40551910092517,-1.2171945819828736,0.5,79.24338071574941,-0.1006798817566999,-0.01008886732875047,0.004606435073775018,0.01994724650122952,0.01745354433344347,-0.0059182603269052145
51,492,10.625639602913363,-1.2171945819828736,0.5,79.23998011971378,-0.08990185290691827,-0.011150813584683143,-0.0107269780373021,-0.025474730143122244,0.009953462777559645,0.009813351310055904
52,502,10.845750658801457,-1.2171945819828736,0.5,79.23657952367815,-0.10586673909364967,0.00633582735100431,0.01002731006135675,-0.009769188593422455,0.01007555919357895,0.006375839446291129
53,511,11.06585226858945,-1.2171945819828736,0.5,79.23317892764251,-0.08747031738878787,0.009966824274833927,0.0011381775220996174,-0.005708965775731361,-0.004864141553807409,0.007667635882559064
54,521,11.285944432277347,-1.2171945819828736,0.5,79.22977833160688,-0.10815093641642581,0.01126259967682311,0.015831080947152944,-0.009060513989939055,-0.01155424722870972,-0.0072215325403482255
55,531,11.506027149865144,-1.2171945819828736,0.5,79.22637773557125,-0.0783391605394094,-0.02130393473071586,-0.016614717713096524,0.030147415233099793,0.0017921702295993181,0.005967611616831439
56,540,11.726100421352841,-1.2171945819828736,0.5,79.22297713953562,-0.095281783624667,0.00630276783152833,-0.013308473821314983,-0.0075240925330731815,0.004285372987641651,0.006833864872805815
57,550,11.946164246740441,-1.2171945819828736,0.5,79.21957654349998,-0.10483388477908762,0.017065081428600436,0.0011452883338099146,-0.004904494033668848,-0.00990580572510576,0.004143920940712187
58,560,12.166218626027941,-1.2171945819828736,0.5,79.21617594746435,-0.08270537128540448,-0.00962824970404865,-0.010302957397808446,-0.009923480584028024,-0.017773356798188176,-0.005300843295875058
59,570,12.386263559215342,-1.2171945819828736,0.5,79.21277535142872,-0.07893370179400294,-0.0027676293839626388,-0.006854246053866414,0.0005536070450687831,-0.004397525971089889,-0.006209061344489476
60,579,12.606299046302643,-1.2171945819828736,0.5,79.20937475539309,-0.09036723315651336,-0.010866658291541783,-0.011538621950180529,0.0011536445164412766,-0.002137766902240981,0.0028773714695585688
61,589,12.826325087289847,-1.2171945819828736,0.5,79.20597415935745,-0.10913742351095342,0.008065034242571784,0.0026302088950837872,-0.006753630492634442,0.0025902888669637626,-0.010473395984133944
62,599,13.046341682176951,-1.2171945819828736,0.5,79.20257356332182,-0.09246668750737903,-0.014552818392668837,-0.011296775820051565,-0.015539159523039149,-0.020759729059596596,0.004975006698940815
63,609,13.266348830963956,-1.2171945819828736,0.5,79.19917296728619,-0.09610128491985778,0.005309200366811841,-0.005998893587889315,-0.010709395905645689,0.0051386491670534305,0.0011210970332396846
64,618,13.486346533650861,-1.2171945819828736,0.5,79.19577237125056,-0.09435037991084991,-0.0025381155847938592,0.007740871256680192,-0.005106727593849819,0.007049774754336953,-0.012098711193036694
65,628,13.706334790237669,-1.2171945819828736,0.5,79.19237177521492,-0.08294068336865054,0.005994930585136029,0.01873060867796981,0.01664668064040483,-0.005530355443124872,-0.0018434235403915534
66,637,13.926313600724377,-1.2171945819828736,0.5,79.18897117917929,-0.08819133385323423,0.013629181448846584,0.003936437007903632,-0.007224135543921829,-0.004354936739682726,-0.02668432998116569
67,647,14.146282965110986,-1.2171945819828736,0.5,79.18557058314366,-0.09610576670577672,0.02819172909902094,-0.005458116471777861,-0.003975380898055558,-0.0017407768638667137,-0.0014146899109718505
68,656,14.366242883397495,-1.2171945819828736,0.5,79.18216998710803,-0.09073220151865417,-0.013308526802690342,-0.01167903054707444,0.002743170745504102,0.0038425547399759297,-0.015893849848846443
69,666,14.586193355583907,-1.2171945819828736,0.5,79.1787693910724,-0.10752337185061592,0.0133871087900255,-0.012131439797107757,0.009838361462272556,-0.024937490938399535,0.0007966309549028685
70,675,14.80613438167022,-1.2171945819828736,0.5,79.17536879503676,-0.10363132243359585,-0.011221256554189988,-0.0033829206316081674,-0.010514861252973724,0.0025452255013252356,0.010983611977481733
71,685,15.026065961656432,-1.2171945819828736,0.5,79.17196819900113,-0.08637659082629576,-0.0019387655024644937,0.0013336177319604975,-0.003213347022863551,-0.008124402988009522,-0.004573649686135232
72,694,15.245988095542547,-1.2171945819828736,0.5,79.1685676029655,-0.09902182171749987,0.003762891461325755,0.004135389779596739,0.01097241329345811,-0.008198206097105795,-0.01617252286105236
73,703,15.465900783328562,-1.2171945819828736,0.5,79.16516700692986,-0.12592603318253426,0.0028961578537055432,-0.00499389001065017,0.0003625594773500203,0.018936879475389218,-0.018893100189715024
74,713,15.685804025014479,-1.2171945819828736,0.5,79.16176641089423,-0.09380910515968925,-0.006873079342782864,0.007918219979795749,-0.005567133554944334,0.000022487916350560248,0.011509710100658113
75,722,15.905697820600295,-1.2171945819828736,0.5,79.1583658148586,-0.09680290647847613,0.006212029108698043,-0.0030373080737020083,-0.0004431327663223782,0.026251584747712307,0.021862092117958462
76,732,16.125582170086012,-1.2171945819828736,0.5,79.15496521882297,-0.10490568041318206,-0.0008919331884401027,0.009083926435109118,-0.0006735306907818272,-0.0026078173982621478,0.010982521033873151
77,741,16.345457073471632,-1.2171945819828736,0.5,79.15156462278733,-0.09294179656129667,-0.0057495557610069865,0.00725258414322737,-0.009540348042728282,-0.008677586037435814,-0.020313083988898785
78,751,16.565322530757154,-1.2171945819828736,0.5,79.1481640267517,-0.09222970966619569,0.020157424102077506,-0.0027874896042045243,0.018587778834505762,0.010851254365409197,0.001937985350796291
79,760,16.785178541942575,-1.2171945819828736,0.5,79.14476343071607,-0.10178990771881986,0.009239891886623173,-0.007599731972952148,0.03250194719000054,0.003953306243804649,0.013835405041743718
80,770,17.005025107027897,-1.2171945819828736,0.5,79.14136283468044,-0.10357889679549774,-0.015192366421297565,0.007768460968576056,-0.020683988634269793,0.003721433947419456,-0.000231547610334222
81,779,17.22486222601312,-1.2171945819828736,0.5,79.1379622386448,-0.08376666974695518,0.00634008512779449,0.003282446580302003,0.015275630227786175,-0.0051629350164473856,-0.00420003762848211
82,789,17.444689898898243,-1.2171945819828736,0.5,79.13456164260917,-0.10244544873589725,0.008595678103988062,0.01689200747570562,0.008433431662682426,0.004576085251895352,-0.013429890127125135
83,798,17.66450812568327,-1.2171945819828736,0.5,79.13116104657354,-0.06776913679737359,0.013937511682206166,0.00002878191329667267,-0.008955948236904283,0.0038143154274831994,-0.01603194931590991
84,808,17.884316906368195,-1.2171945819828736,0.5,79.1277604505379,-0.09348602956191873,0.008771854390991776,-0.008092901565131046,0.003580028778720375,-0.0023012912613621346,0.014521350787108162
85,817,18.104116240953022,-1.2171945819828736,0.5,79.12435985450227,-0.10406397165469916,-0.0016895731977057543,-0.022076240835501,-0.011828823277018398,-0.020479745048930253,-0.02598345062410469
86,827,18.323906129437752,-1.2171945819828736,0.5,79.12095925846664,-0.08835677617394479,0.0018145859223870572,0.008527100077828977,0.0009103936937007144,0.015639994842632114,-0.020147262869397713
87,836,18.54368657182238,-1.2171945819828736,0.5,79.11755866243101,-0.0986460561863434,0.0013548126114805105,-0.009180365805602976,0.0036360245408173244,-0.003303726145986981,-0.0011307038648878014
88,846,18.76345756810691,-1.2171945819828736,0.5,79.11415806639538,-0.10165191481994841,-0.0018004754397583423,-0.019590408971963333,-0.018470582891009835,0.009634099063331401,0.008734000212193074
89,855,18.983219118291345,-1.2171945819828736,0.5,79.11075747035974,-0.1011718524414493,-0.004320345723436357,-0.005371274440439255,-0.00583682092872182,0.012431964359032628,-0.0008481961088507075
90,865,19.202971222375677,-1.2171945819828736,0.5,79.10735687432411,-0.09476900361618502,-0.004125192901576584,-0.014805727476550385,-0.021257831462715503,0.005002083963132499,-0.0014594856647985627
91,874,19.42271388035991,-1.2171945819828736,0.5,79.10395627828848,-0.10075097696980735,0.0011136720260825897,0.011621275801174443,0.003907639290442102,0.018668464701913814,0.0018940796049437053
92,883,19.642447092244044,-1.2171945819828736,0.5,79.10055568225285,-0.0807636028263421,0.00024367513799071347,-0.0037961430409384884,-0.006671376996920937,-0.002492527298749665,0.0013664175792598504
93,893,19.86217085802808,-1.2171945819828736,0.5,79.09715508621721,-0.10098313787583797,0.004646278917105031,-0.004843876824555872,0.01770811990012885,-0.009008141208194749,0.007854295422613795
94,902,20.081885177712017,-1.2171945819828736,0.5,79.09375449018158,-0.09007429696613393,0.014476795490088849,0.008055512073604637,0.0061785390349641395,0.011370038724270311,0.002367286041879163
95,912,20.301590051295854,-1.2171945819828736,0.5,79.09035389414595,-0.09014660101713716,0.005911950796951302,-0.008793810631191458,0.021836416329629068,0.008670900432558408,-0.0010405673888142608
96,921,20.521285478779593,-1.2171945819828736,0.5,79.08695329811032,-0.10271962818178401,-0.004228394198062939,0.005513223161316873,-0.0048035165409789455,-0.008150547046776441,0.008847143808178961
97,931,20.740971460163234,-1.2171945819828736,0.5,79.08355270207468,-0.09517354379729569,0.00706936213164449,-0.02058568505275807,-0.005794810304624145,-0.014384868526337477,-0.007284881762957605
98,940,20.960647995446774,-1.2171945819828736,0.5,79.08015210603905,-0.09097339261026757,-0.006860981596850126,0.009580451804602187,-0.007495034398290954,0.0018081335601457377,-0.004631115662998093
99,950,21.180315084630216,-1.2171945819828736,0.5,79.07675151000342,-0.0812922808883479,-0.01225935649759747,0.00001077071823240508,-0.01450603081862356,0.00431163719648209,0.006308311844595353
100,959,21.39997272771356,-1.2171945819828736,0.5,79.07335091396779,-0.08741428709779027,0.010072470835253863,-0.00017116705029488578,0.012475704923610428,0.0007463284857292854,-0.002931181663845539
101,969,21.619620924696804,-1.2171945819828736,0.5,79.06995031793215,-0.08978125135271063,-0.006656360645830492,0.012576986334799135,-0.016543550107913415,-0.022652672724441346,0.00944394270765508
102,978,21.83925967557995,-1.2171945819828736,0.5,79.06654972189652,-0.10686778451428124,0.002830611431338202,-0.01145916080583478,0.00435474938818603,0.008442511157952087,-0.007232450122975569
103,987,22.058888980362994,-1.2171945819828736,0.5,79.06314912586089,-0.10606959591456869,0.0015898980848540933,0.034969331730483236,-0.01293209911470764,0.013442312478880282,0.008126692813337449
104,997,22.27850883904594,-1.2171945819828736,0.5,79.05974852982526,-0.08938779163685609,-0.0022034956499155543,-0.003349936068074539,-0.008355589896894252,-0.005137717983562015,0.006483511346516257
105,1006,22.49811925162879,-1.2171945819828736,0.5,79.05634793378962,-0.10027489848172665,-0.0085020846302194,0.01210018298815731,-0.015381026609009012,-0.013183045168940574,0.008496036978010681
106,1016,22.717720218111538,-1.2171945819828736,0.5,79.05294733775399,-0.09642015932586975,0.0006700383537206491,0.005211296540793404,-0.006432226135791025,0.009560184022372865,-0.011028428790059426
107,1025,22.937311738494188,-1.2171945819828736,0.5,79.04954674171836,-0.0974355714130982,-0.0047318444203830095,0.006755738549277204,0.011798735564545929,-0.0012198127825416535,0.0005930944648180359
108,1035,23.15689381277674,-1.2171945819828736,0.5,79.04614614568273,-0.1136114811447651,0.012222091895973432,-0.005021791775986291,-0.014700282409483723,0.001701010012859751,0.015651853559505158
109,1044,23.37646644095919,-1.2171945819828736,0.5,79.0427455496471,-0.09600280137015693,-0.016244598262376047,-0.008695196491129438,0.0018656381035383682,-0.0063042642770677225,0.02085855040933934
110,1054,23.596029623041545,-1.2171945819828736,0.5,79.03934495361146,-0.09620483963415188,0.016882669806282773,0.01973644525022024,-0.008295149984483299,-0.004516176025392406,-0.009200048492791647
111,1063,23.815583359023798,-1.2171945819828736,0.5,79.03594435757583,-0.07627308317359902,-0.0036582606210066684,0.006574048347635305,0.009489123041215753,0.011918998673836204,-0.0004555847020147563
112,1073,24.035127648905952,-1.2171945819828736,0.5,79.0325437615402,-0.1117457052124758,0.013128237610485842,0.006395593062993831,-0.0006709410923008538,0.0012907389447410745,-0.0008622715278936195
113,1082,24.25466249268801,-1.2171945819828736,0.5,79.02914316550456,-0.08325848486436126,-0.011944176653901172,-0.011426424030357051,0.006820268477931948,-0.0015412963479679185,0.006055988592914367
114,1091,24.474187890369965,-1.2171945819828736,0.5,79.02574256946893,-0.09010959316038945,0.013160360119603106,-0.0006090281319730184,-0.0027006597660177256,0.012775121868518074,-0.0057109382716345625
115,1101,24.693703841951823,-1.2171945819828736,0.5,79.0223419734333,-0.10818434043890934,0.0013131926474315692,-0.010859843575132585,-0.007537186642971221,0.000876790425084524,0.0071041749935311874
116,1110,24.913210347433584,-1.2171945819828736,0.5,79.01894137739767,-0.09798607654174996,-0.002599265416907289,0.017431774667468005,-0.006270276074756104,0.0045122412449841946,0.020623208331436285
117,1120,25.132707406815243,-1.2171945819828736,0.5,79.01554078136203,-0.11501913470748334,-0.01462802714821877,-0.002733495278967536,-0.005039346052017657,-0.010549457651589843,-0.0048915407954134285
118,1129,25.352195020096804,-1.2171945819828736,0.5,79.0121401853264,-0.08804850278121693,-0.007073974561833236,0.01362280050615941,0.004543273570314271,-0.003509095889138996,0.010234120813456964
119,1139,25.571673187278268,-1.2171945819828736,0.5,79.00873958929077,-0.07741716167564933,0.0014674290031172757,-0.022231703826277132,-0.013255289095723616,-0.004086470021069773,-0.009405901383555825
120,1148,25.79114190835963,-1.2171945819828736,0.5,79.00533899325514,-0.09055650757906328,0.008794904287630023,-0.008423997198082938,0.01649378775931731,-0.019493802930671166,-0.016797119622647842
121,1158,26.010601183340896,-1.2171945819828736,0.5,79.0019383972195,-0.06491717431585528,0.004232849510849354,0.007032240838848196,-0.01354233232088935,-0.0023974114001765767,0.0020651088541380753
122,1167,26.23005101222206,-1.2171945819828736,0.5,78.99853780118387,-0.08921507844702058,0.0012399808375623176,0.006407665514770004,-0.003201750004392438,0.009574175330293925,-0.009833130219495046
123,1176,26.449491395003125,-1.2171945819828736,0.5,78.99513720514824,-0.08963385791149957,-0.002645263546428871,0.004922686570601025,0.00021344843272710969,0.0039855022023024865,0.010346132004953995
124,1186,26.668922331684094,-1.2171945819828736,0.5,78.9917366091126,-0.08747841642500187,-0.009672797956122593,-0.005748061623584932,0.003619824409064632,-0.015632919223451686,0.0003558739465213044
125,1196,26.88834382226496,-1.2171945819828736,0.5,78.98833601307697,-0.09196483101657361,-0.00921697203297601,0.008137486692916722,0.000824344439984207,0.012934576780359416,0.0006419809320546431
126,1205,27.10775586674573,-1.2171945819828736,0.5,78.98493541704134,-0.09667791657563826,0.004662504836636417,-0.002373550373778782,-0.001960165987859553,0.004451372922970529,-0.0009067879277622402
127,1215,27.327158465126402,-1.2171945819828736,0.5,78.98153482100571,-0.09100183308454145,-0.009045522607673035,0.005467840745488226,0.0014731475147378333,0.004980781290548831,-0.009524538796873955
128,1224,27.546551617406973,-1.2171945819828736,0.5,78.97813422497008,-0.08778157433240351,-0.02082551739472156,0.007230342596607151,0.005634569595058624,-0.008839687125299183,0.0021467075503932946
129,1233,27.765935323587446,-1.2171945819828736,0.5,78.97473362893444,-0.11499365968493239,-0.010075797261949982,0.00872384183056029,-0.001991050852861776,0.015491281080653417,0.011903600698861316
130,1243,27.98530958366782,-1.2171945819828736,0.5,78.97133303289881,-0.08915611609956971,0.004734270732017517,-0.005076443666962906,-0.010878274611157746,-0.00711923528165528,0.007975397672589042
131,1253,28.204674397648095,-1.2171945819828736,0.5,78.96793243686318,-0.10436979692753805,0.0011278022768160276,0.009179615352316702,-0.01636848304155897,0.00142288342120334,-0.0067365871303258305
132,1262,28.42402976552827,-1.2171945819828736,0.5,78.96453184082755,-0.08223828616217192,-0.008806111405461491,0.010348859833200387,0.02182296327617347,0.011789523755311018,-0.008035382711854526
133,1272,28.643375687308346,-1.2171945819828736,0.5,78.96113124479191,-0.097167884189845,-0.004609909922839809,0.0014163753437175272,0.006370925886877902,-0.014372973455632867,-0.011563967720871968
134,1281,28.862712162988323,-1.2171945819828736,0.5,78.95773064875628,-0.10391099828678355,0.01730648685243948,-0.0007134228786941053,-0.0019616097610916255,-0.005565654349574206,0.0033579843713649284
135,1291,29.082039192568203,-1.2171945819828736,0.5,78.95433005272065,-0.08907396608286317,0.0059141134773979575,0.006466687132489899,0.005448712715625617,-0.013142428355063959,-0.0006232845920726133
136,1301,29.30135677604798,-1.2171945819828736,0.5,78.95092945668502,-0.08557446701325093,-0.022489357612540135,-0.010138068901320726,0.013941320338976151,-0.005022985311581763,0.009850634964028784
137,1310,29.520664913427662,-1.2171945819828736,0.5,78.94752886064938,-0.08683054984062422,-0.008601179634944061,-0.0028415317297927002,-0.003383319879482874,0.004498100601953413,0.00047518946618444423
138,1320,29.739963604707246,-1.2171945819828736,0.5,78.94412826461375,-0.07986353255417777,0.0005749887170537563,-0.0069686648257524615,-0.0006098793563911871,-0.01829686090721946,-0.011902134206872958
139,1329,29.959252849886727,-1.2171945819828736,0.5,78.94072766857812,-0.08817014392146699,0.010397145625811703,-0.007603199287950626,-0.013822470560810114,-0.0010150607052594933,-0.004874282343496603
140,1339,30.17853264896611,-1.2171945819828736,0.5,78.93732707254249,-0.08808249678349284,-0.0043639451940336894,-0.015722086171120093,-0.009153788829442086,0.015253550479237446,-0.008427275306095196
141,1348,30.397803001945395,-1.2171945819828736,0.5,78.93392647650685,-0.08320350006991209,-0.0008410893308504004,-0.008099391746666212,-0.01759903717286467,0.007842132980664798,0.0008251239661661935
142,1357,30.61706390882458,-1.2171945819828736,0.5,78.93052588047122,-0.0871456800348062,0.008400448184096769,-0.005543377766570901,-0.0028799878851901366,0.01386712653489248,0.010355448165883248
143,1367,30.836315369603668,-1.2171945819828736,0.5,78.92712528443559,-0.08698323933536367,-0.0038027436174478207,-0.018432241184689814,-0.01960598133927028,-0.002060765363719458,-0.011509769371764716
144,1376,31.055557384282654,-1.2171945819828736,0.5,78.92372468839996,-0.1036604436951617,-0.0038815493937634517,-0.004096595221754098,-0.004016174299313305,0.021278871239572533,-0.013248891859456666
145,1386,31.274789952861543,-1.2171945819828736,0.5,78.92032409236432,-0.1015290025027877,-0.0047029631140290355,-0.015056343864949194,0.0035728182493244293,-0.01928857805804104,0.007950626212418245
146,1396,31.494013075340334,-1.2171945819828736,0.5,78.91692349632869,-0.09433367169736448,0.035297145514610474,-0.002129467175997598,0.013682264667610236,-0.0017122618616710944,0.013524684019398452
147,1405,31.713226751719024,-1.2171945819828736,0.5,78.91352290029306,-0.09854819542300251,-0.005841713291044934,0.006816801637913576,0.005927203867433211,0.011204735371131164,-0.012255035868936765
148,1414,31.932430981997616,-1.2171945819828736,0.5,78.91012230425743,-0.08704018121038484,0.004539114312068515,-0.0006363492787269165,-0.0019995084686826557,-0.013025174349614373,-0.006491624732587491
149,1424,32.15162576617611,-1.2171945819828736,0.5,78.9067217082218,-0.07832099259780732,0.005163788715231745,0.0018375232050562246,-0.006378004477321242,-0.00037182421153511065,0.0019408813936169272
150,1433,32.37081110425451,-1.2171945819828736,0.5,78.90332111218616,-0.09006055615149876,-0.014319755985990288,0.00006782660694326076,-0.006908590327258359,0.005936914396845996,-0.023084118163352634
151,1443,32.5899869962328,-1.2171945819828736,0.5,78.89992051615053,-0.10047291929037178,-0.006770152331272556,-0.0018259346005965928,-0.01504001325912975,0.003100361793580077,0.00647268729957063
152,1452,32.809153442111,-1.2171945819828736,0.5,78.8965199201149,-0.06889230189597563,-0.01033407211276424,0.01639802489219059,-0.008840658518523703,0.004523385117362529,-0.008634559676804276
153,1461,33.0283104418891,-1.2171945819828736,0.5,78.89311932407927,-0.09330726892021561,0.02004994882612717,0.0043321317391259405,0.0051048205341475365,-0.009063831831561054,-0.0023166987995619113
154,1471,33.247457995567096,-1.2171945819828736,0.5,78.88971872804363,-0.10804988418246533,0.024791973599360424,0.010820533625136762,-0.007344225648805164,0.009966684994802145,0.002687988136824282
155,1480,33.466596103144994,-1.2171945819828736,0.5,78.886318132008,-0.10413404961844448,0.008882597878680547,-0.0066045051960622065,-0.0028898918212988244,0.014432645335993206,-0.010425909866516639
156,1490,33.68572476462279,-1.2171945819828736,0.5,78.88291753597237,-0.07832154734097319,-0.012539079221878077,-0.007131432522196234,0.017861703002046567,-0.012076265514677761,0.0015519085870075123
157,1499,33.90484398000049,-1.2171945819828736,0.5,78.87951693993674,-0.09474589247271308,-0.005674742321838841,-0.008633894722719604,0.003609806606857158,0.0027501343858884037,0.004060487874554975
158,1509,34.123953749278094,-1.2171945819828736,0.5,78.8761163439011,-0.08767465162531815,-0.0064670888335127625,0.00926948262290915,0.022640503046154708,0.005174928649597458,-0.0009820740779040303
159,1518,34.343054072455594,-1.2171945819828736,0.5,78.87271574786547,-0.09389798830223973,-0.010322640673339184,-0.00748856895422961,0.020837337202210655,0.014400782133068543,-0.0014962380453833505
160,1528,34.562144949533,-1.2171945819828736,0.5,78.86931515182984,-0.0890368159815025,-0.018976452208062062,0.005786838067219209,0.012130133531993128,-0.0020760686204812605,0.004317159840045446
161,1537,34.781226380510304,-1.2171945819828736,0.5,78.8659145557942,-0.10484962194272007,0.015123844686459475,0.0009285962834757328,0.03763829156440241,0.01586168027510651,-0.01028847367296624
162,1547,35.00029836538751,-1.2171945819828736,0.5,78.86251395975857,-0.09357651603177071,-0.003212671777233886,0.0062583033248301435,-0.011420102778563772,-0.004275431944483496,0.0003802472094492864
163,1556,35.21936090416462,-1.2171945819828736,0.5,78.85911336372294,-0.09305738395685122,0.0047822376267480406,-0.00038158694650740837,0.0010667929047273657,0.005849488386589245,-0.025736335994683838
164,1566,35.438413996841625,-1.2171945819828736,0.5,78.85571276768731,-0.09097730768264811,0.010391530376343357,0.00608745207100704,-0.00287938329910644,-0.002011911508940031,-0.008710471291905964
165,1575,35.65745764341853,-1.2171945819828736,0.5,78.85231217165168,-0.08596708702287287,-0.0074004463662553375,0.005659090127925149,0.0018310385382789647,0.0017856685455908566,-0.0007240424011705174
166,1585,35.876491843895344,-1.2171945819828736,0.5,78.84891157561604,-0.10705140602762563,0.005311115898528642,0.0039012127242624133,0.0006010964157729594,0.013367784748568715,0.0037074777107708157
167,1594,36.095516598272056,-1.2171945819828736,0.5,78.84551097958041,-0.09730001182636133,-0.021265261516717652,-0.0042488956790456296,-0.0027650317918692284,-0.007201985164028086,-0.008693262624065026
168,1604,36.314531906548666,-1.2171945819828736,0.5,78.84211038354478,-0.11482893122857862,0.007683553990614418,0.013550439927680206,0.011297272032259229,0.01660716104834504,0.0035085935570703564
169,1613,36.53353776872518,-1.2171945819828736,0.5,78.83870978750915,-0.09832466834346693,-0.016916613782733823,0.0069654305066173365,0.006722089171727302,0.010852143828080012,-0.01097902687172843
170,1623,36.7525341848016,-1.2171945819828736,0.5,78.83530919147351,-0.09206496988841224,-0.00486257258086493,0.00028997877020154147,-0.002445661434541272,0.01163533131087455,0.013802852874660758
171,1632,36.97152115477791,-1.2171945819828736,0.5,78.83190859543788,-0.09302894480600876,-0.00017712126295076178,0.0009749217024925487,-0.001654866370983588,0.0011052252413846985,0.00296303116721779
172,1642,37.19049867865413,-1.2171945819828736,0.5,78.82850799940225,-0.07601708128487959,0.0033342948162189694,-0.015444343858331084,0.002354964615597311,0.005690286989927271,0.003411144752786445
173,1651,37.40946675643025,-1.2171945819828736,0.5,78.82510740336662,-0.08208525950672943,-0.00430260489945402,0.0018206522184614404,0.03066967531581729,0.007558246832979591,0.007215680084547178
174,1661,37.628425388106265,-1.2171945819828736,0.5,78.82170680733098,-0.09748044086798788,-0.011335112930389999,0.0030777052658324147,0.02092378391718319,-0.0036458888547358397,0.01616795570909578
175,1670,37.84737457368219,-1.2171945819828736,0.5,78.81830621129535,-0.08886215525357621,0.002602541858283616,0.01591297718577626,-0.004455476098283318,-0.016394020268573704,-0.0019382427671915715
176,1679,38.06631431315801,-1.2171945819828736,0.5,78.81490561525972,-0.09111684147764,-0.020774867380536827,0.00428129996308603,-0.004881888710255565,0.00046171298366586006,-0.014048681180760926
177,1689,38.28524460653373,-1.2171945819828736,0.5,78.81150501922409,-0.10791048052795739,-0.011037107190771703,0.011492179234719381,0.013523073544077753,-0.01020310050773733,0.04184478229152327
178,1698,38.50416545380935,-1.2171945819828736,0.5,78.80810442318845,-0.09804782708323788,0.01848911175799714,-0.0009310232877607554,-0.003251524068796287,0.0016588138097520678,0.016723688571280506
179,1708,38.723076854984875,-1.2171945819828736,0.5,78.80470382715282,-0.1019536549020057,-0.0028870184607314676,-0.01948257808349648,0.014892219275235222,-0.019777951930641535,-0.013396629882306992
180,1717,38.9419788100603,-1.2171945819828736,0.5,78.80130323111719,-0.07880902233729539,-0.004782976643496648,-0.005137581382940557,0.010087607125511022,0.005743784608947502,-0.01655953201320572
181,1727,39.16087131903562,-1.2171945819828736,0.5,78.79790263508156,-0.09565907063401145,0.0026532057721913916,-0.0015387539881992244,-0.004873198383455767,0.010211546131857095,-0.0022716145785894614
182,1736,39.37975438191085,-1.2171945819828736,0.5,78.79450203904592,-0.09454858797546122,0.009891843352852463,0.010124580788729897,0.008898152678475758,-0.008222219470323627,-0.0012093829890045776
183,1746,39.59862799868598,-1.2171945819828736,0.5,78.79110144301029,-0.0985230396864224,-0.011756365171207582,-0.010756981329432043,0.007370234628054048,-0.0027749113778048223,-0.02070213055022436
184,1755,39.817492169361,-1.2171945819828736,0.5,78.78770084697466,-0.09587173009004187,0.0010733153614785388,0.0021591292489437195,-0.006663733044355099,-0.005118598371555424,-0.018335609527601465
185,1765,40.036346893935935,-1.2171945819828736,0.5,78.78430025093903,-0.10611277847817056,0.0008454184785312956,0.0013585498251999868,0.000450627133574209,-0.013885129113394732,-0.0022895226046106016
186,1774,40.255192172410766,-1.2171945819828736,0.5,78.7808996549034,-0.09996198501477585,0.006406441182432363,-0.012037737684345457,-0.020381466736995667,0.004655241942268248,-0.003863552305549561
187,1784,40.474028004785495,-1.2171945819828736,0.5,78.77749905886776,-0.10309527455614056,-0.029127463569546833,0.00986290160508969,-0.006461773243022097,0.00648170069352662,-0.0023227366093199063
188,1793,40.69285439106013,-1.2171945819828736,0.5,78.77409846283213,-0.08956904713619539,-0.0034018045284568764,-0.002628538333761602,-0.007676016520133924,0.006246134228027068,0.011702341176298463
189,1803,40.911671331234665,-1.2171945819828736,0.5,78.7706978667965,-0.07129546963105682,-0.011196397891796052,-0.013298741262406976,-0.005408947706732539,-0.01470990688942067,0.0022504410450623537
190,1812,41.1304788253091,-1.2171945819828736,0.5,78.76729727076086,-0.10479247828288735,-0.014692329060900502,0.0024041439091476258,-0.007192620878951806,0.0021051172171792734,0.007289752193544337
191,1822,41.349276873283436,-1.2171945819828736,0.5,78.76389667472523,-0.09656372750361185,-0.010377274237585969,-0.0046204676730730605,0.0005031397420706878,-0.0031007217616782117,-0.003100063105971433
192,1831,41.568065475157674,-1.2171945819828736,0.5,78.7604960786896,-0.09781788904739921,0.004467906292341776,0.002109363713152451,0.001087401996731981,-0.006891026543724995,0.014271732825423704
193,1841,41.78684463093181,-1.2171945819828736,0.5,78.75709548265397,-0.09585750827863619,0.009161283810474825,0.009851138935575342,-0.0020627739961660676,-0.0035651960327635138,0.016709355842004444
194,1850,42.00561434060585,-1.2171945819828736,0.5,78.75369488661833,-0.08473567147276918,-0.00034366209280245556,-0.004822084947423954,0.0010217153543675647,0.016032449990759822,0.010483912959551278
195,1860,42.22437460417979,-1.2171945819828736,0.5,78.7502942905827,-0.08584421920921331,-0.0070497643725688395,-0.0111312166985081,-0.021712788256816377,-0.00566315627712398,0.006733306065089758
196,1869,42.44312542165363,-1.2171945819828736,0.5,78.74689369454707,-0.08577059510327105,-0.008508524935835876,-0.012029398200111462,-0.004096814965339862,0.008603402591861471,0.005328448509025722
197,1879,42.66186679302737,-1.2171945819828736,0.5,78.74349309851144,-0.09232201284932523,-0.00614823814236437,-0.01547763345721148,-0.006912275174118543,0.005694973139430959,-0.014807383513004724
198,1888,42.880598718301016,-1.2171945819828736,0.5,78.7400925024758,-0.08717631666545587,0.007390998272096852,0.005565742593052045,-0.006755302365004933,-0.016577504775966187,-0.014903942629198298
199,1898,43.09932119747456,-1.2171945819828736,0.5,78.73669190644017,-0.0789602980376149,-0.01592033691200394,-0.012928462778882467,0.014464574823697632,0.007187568715051575,-0.012161570292948056
200,1907,43.318034230548,-1.2171945819828736,0.5,78.73329131040454,-0.0937210495602545,0.005742366524120488,0.006729532162676014,-0.011015810120504151,0.00041439714775949886,-0.0011670999324275531
201,1917,43.53673781752135,-1.2171945819828736,0.5,78.7298907143689,-0.09377080685800177,0.007751119460682374,0.0025321924802717936,0.0034413132143735763,-0.01861262373748994,-0.0032797139192529195
202,1926,43.755431958394595,-1.2171945819828736,0.5,78.72649011833327,-0.0829161037196986,-0.02137661370942937,0.0034738363349898728,-0.008687970671284274,0.008086243931016132,0.004302574775580475
203,1936,43.97411665316774,-1.2171945819828736,0.5,78.72308952229764,-0.0696571577649903,0.0035113728248176825,-0.006071483494266923,0.008862446844337499,-0.012594031858229767,-0.014473516665042435
204,1945,44.19279190184079,-1.2171945819828736,0.5,78.71968892626201,-0.099417789867038,-0.008172741000944402,-0.005970857670032805,0.00037520545788712924,-0.017834458518704292,-0.01391350218021776
205,1955,44.41145770441374,-1.2171945819828736,0.5,78.71628833022638,-0.1156982334510287,0.018373384504846737,0.007191809166534203,0.0038205925188884173,0.0023033448029084708,0.002807298549771885
206,1964,44.63011406088659,-1.2171945819828736,0.5,78.71288773419074,-0.11150254811904396,-0.00893127782814997,-0.006055578867130163,-0.012932922519261026,0.011669226213777924,-0.004033871705381536
207,1974,44.848760971259345,-1.2171945819828736,0.5,78.70948713815511,-0.08463980601890066,-0.0005240087176849173,0.010526036410341782,-0.011914388126281702,0.014308159757697933,0.008794449863363113
208,1983,45.067398435532,-1.2171945819828736,0.5,78.70608654211948,-0.08601203177263972,0.02849849763847911,-0.016474242859860374,0.0064293639145145695,-0.014619443408914572,-0.005787008057173644
209,1993,45.28602645370455,-1.2171945819828736,0.5,78.70268594608385,-0.08678723014645627,-0.010111273054551152,-0.002157379020790243,0.02120535278800993,-0.010695607948603048,-0.00968058496242053
210,2002,45.50464502577701,-1.2171945819828736,0.5,78.69928535004821,-0.10185459955562767,-0.0027692719993742836,-0.009079915409477148,-0.01821642265731587,-0.02032618753263243,-0.0009965834050944381
211,2012,45.723254151749366,-1.2171945819828736,0.5,78.69588475401258,-0.08873898149160238,-0.01325092510085064,-0.00913173105241233,-0.0014692694369524031,-0.001358826031184919,-0.008988990398496696
212,2021,45.94185383162162,-1.2171945819828736,0.5,78.69248415797695,-0.10269102642868208,0.0002098199934542379,0.00040859530172271863,-0.013504019686365883,0.0016377931891094536,-0.0010860995589616626
213,2031,46.16044406539378,-1.2171945819828736,0.5,78.68908356194132,-0.09716599694017754,-0.01018533035315994,-0.007731751199368238,-0.0028337238869205555,0.004022046788671852,0.011208007644126721
214,2040,46.37902485306584,-1.2171945819828736,0.5,78.68568296590568,-0.09604040941929932,-0.012971882086733454,0.00861709807402964,-0.01746747587510007,0.004433867616514481,0.003947325937650823
215,2050,46.5975961946378,-1.2171945819828736,0.5,78.68228236987005,-0.08559809583037305,0.0019296484011383384,0.006525387093856264,0.007300371253640484,-0.0093358651223987,-0.009016382820156531
216,2059,46.81615809010966,-1.2171945819828736,0.5,78.67888177383442,-0.10106357680708986,-0.014550904409394747,0.007837944636243389,0.004614290887741396,-0.00010280686137753148,-0.0028526577317388936
217,2069,47.03471053948142,-1.2171945819828736,0.5,78.67548117779879,-0.10162338612107649,0.009741959964558684,-0.00606226313319427,0.007252036089189517,0.006007096036192844,0.010354416222133511
218,2078,47.253253542753086,-1.2171945819828736,0.5,78.67208058176315,-0.07369121652099574,-0.011131265142808197,0.019750500378736893,0.006829178236668956,0.015388274547809203,-0.0055988750805061
219,2088,47.47178709992465,-1.2171945819828736,0.5,78.66867998572752,-0.09422245540061819,0.009772998296390289,-0.00682200239512917,0.0029439552214228673,-0.014599876557959433,-0.015973114927430754
220,2097,47.690311210996114,-1.2171945819828736,0.5,78.66527938969189,-0.11541271600402925,-0.006611698834085838,0.0032291498787981906,-0.032691228302113684,-0.003595800041895555,0.0033178979114519727
221,2106,47.90882587596748,-1.2171945819828736,0.5,78.66187879365626,-0.08283921924732836,-0.00915248651478126,0.0019674132851521873,0.006623436259732966,-0.002829992221282313,-0.01114621271985794
222,2116,48.127331094838745,-1.2171945819828736,0.5,78.65847819762062,-0.11784406992122087,0.004686216800809751,0.0027646355323677403,0.00023126381438644193,-0.0074787407089332006,-0.0007197107303991172
223,2125,48.345826867609915,-1.2171945819828736,0.5,78.65507760158499,-0.10500644264552682,-0.009319954775308947,0.0037982356609668837,-0.004881728894790461,-0.002216604266307711,-0.0013865203134876666
224,2135,48.564313194280984,-1.2171945819828736,0.5,78.65167700554936,-0.09405447948960766,0.006731405841190305,0.0027571962636154922,0.006393888118073391,-0.019408698299826145,0.0013495189399500638
225,2144,48.78279007485195,-1.2171945819828736,0.5,78.64827640951373,-0.09909395537301073,-0.005641435937064288,-0.007975664819272895,-0.03940632541017586,-0.002941397040919106,-0.006694910935929446
226,2154,49.001257509322826,-1.2171945819828736,0.5,78.6448758134781,-0.10093306475381345,0.0071974318752141475,0.018183115675226715,0.005747801060371647,-0.012129340033840703,0.002522956391997492
227,2163,49.2197154976936,-1.2171945819828736,0.5,78.64147521744246,-0.08793924561810225,-0.005434870960234324,-0.009336238722036823,0.010922448332673695,0.002246714950590407,-0.00007904670087337067
228,2172,49.43816403996427,-1.2171945819828736,0.5,78.63807462140683,-0.08467673458740022,-0.018146912491862344,-0.008485784629018734,-0.0043408922021047625,-0.013776788851713823,-0.018210726129744864
229,2182,49.65660313613485,-1.2171945819828736,0.5,78.6346740253712,-0.09254526398732707,-0.00634225571281334,0.000603432291577027,-0.007418485317761399,-0.00432393120952065,-0.016834795647275212
230,2191,49.875032786205324,-1.2171945819828736,0.5,78.63127342933556,-0.09605826345431778,0.007996363127349998,0.03128414625603706,0.000686070902643202,-0.004576259925954812,0.0026295838827916644
231,2201,50.0934529901757,-1.2171945819828736,0.5,78.62787283329993,-0.08832561400932173,-0.012157710739677117,0.00155788796847162,-0.003997632548763427,-0.012071721685083033,0.012269737915488061
232,2210,50.31186374804598,-1.2171945819828736,0.5,78.6244722372643,-0.09664610375145263,-0.000309467872199152,0.012260629211202474,-0.000011432513792824641,0.005718898902535504,-0.0073022762754156555
233,2220,50.53026505981616,-1.2171945819828736,0.5,78.62107164122867,-0.10819068644180999,-0.013478741435671534,0.008104693552048129,-0.011790256308311932,0.009116830900157498,-0.0015139555315516172
234,2229,50.74865692548624,-1.2171945819828736,0.5,78.61767104519303,-0.09102809591598826,-0.012068912076398335,0.002513102007858439,-0.014677669185479756,0.002571201456807276,0.010644769565256925
235,2239,50.96703934505622,-1.2171945819828736,0.5,78.6142704491574,-0.09193130096652848,-0.013627778360198907,0.0036608173698366993,0.01473436683832483,0.006221855252057076,0.0060559607507857105
236,2248,51.185412318526105,-1.2171945819828736,0.5,78.61086985312177,-0.08979491319915343,-0.009158017059240298,0.0006979512879812759,-0.010532878572418178,-0.01120134324474571,0.007389379754536676
237,2258,51.403775845895886,-1.2171945819828736,0.5,78.60746925708614,-0.09823073388964376,0.014595484370609394,0.004266734398672813,0.013711860743732332,0.012624038523425665,0.005188279058686997
238,2267,51.62212992716557,-1.2171945819828736,0.5,78.6040686610505,-0.08872476260482666,0.007419323003073818,0.0060083339533427964,0.006252427383919538,-0.005556923592694645,0.007871247842948823
239,2277,51.84047456233515,-1.2171945819828736,0.5,78.60066806501487,-0.08679668044746211,-0.003943870370317944,0.008408576696078114,-0.019330962027323345,0.009309696051627288,0.010293166948455248
240,2286,52.05880975140464,-1.2171945819828736,0.5,78.59726746897924,-0.09824123782112515,-0.0010115067389373077,-0.004978606620856507,-0.00023543494787296826,0.025535894054230367,-0.004934169296797384
241,2296,52.27713549437402,-1.2171945819828736,0.5,78.59386687294361,-0.10350498823285627,0.003446819389017177,-0.0009079558046453983,0.00022298752571785308,-0.004092303111005879,-0.0007770962066052902
242,2305,52.49545179124331,-1.2171945819828736,0.5,78.59046627690797,-0.09742005453606091,0.0063416095061045,0.009009200067636823,0.008003489494381616,0.004340009419214107,-0.003604443877003236
243,2315,52.7137586420125,-1.2171945819828736,0.5,78.58706568087234,-0.08443479698773669,-0.008278863526540213,-0.0017937827614828807,0.005812073036117767,0.008110680843500506,-0.0028126945131562954
244,2324,52.93205604668159,-1.2171945819828736,0.5,78.58366508483671,-0.09740928792800917,0.00044389954703751407,0.021119899268667253,-0.003793591521628025,0.004502830750558732,-0.014039235733680986
245,2334,53.15034400525058,-1.2171945819828736,0.5,78.58026448880108,-0.09014318192860764,0.010969978471305696,-0.015383551850261407,0.00514683740882639,-0.0007481226653843203,0.013500999281977935
246,2343,53.36862251771947,-1.2171945819828736,0.5,78.57686389276545,-0.08568728616289592,-0.0035875281982837006,0.002799735915839019,-0.006995423715696645,0.006783855853345272,-0.002311015339164558
247,2352,53.586891584088264,-1.2171945819828736,0.5,78.57346329672981,-0.10712750785138228,0.0015678297564781496,-0.014771481931120196,-0.011584340975281979,-0.012717321407063584,0.0026693021200098798
248,2362,53.80515120435696,-1.2171945819828736,0.5,78.57006270069418,-0.08290061269782638,0.008289303157402537,-0.007003991335289467,-0.0063872176319789585,-0.0027123547744352322,-0.00925158230158357
249,2371,54.023401378525556,-1.2171945819828736,0.5,78.56666210465855,-0.08573500592913805,-0.0013229638349114203,-0.008854307676281065,0.009677371306447078,-0.004491164064272486,-0.0002012995703936397
250,2381,54.24164210659405,-1.2171945819828736,0.5,78.56326150862292,-0.08982859028691287,0.005518318674289738,0.010954348765701097,0.023407755843138783,-0.016588062148858773,-0.0005441691371246318
251,2390,54.45987338856245,-1.2171945819828736,0.5,78.55986091258728,-0.09124659636540794,0.026526607766107962,-0.004285279670444031,0.006475594540970803,0.0168657475314749,0.0007883354606083032
252,2400,54.67809522443075,-1.2171945819828736,0.5,78.55646031655165,-0.11094771184279459,-0.016888138412062773,0.005715845045490737,0.004561110840956727,0.0017765990982178254,-0.000825966841657943
253,2409,54.896307614198946,-1.2171945819828736,0.5,78.55305972051602,-0.10279200984058773,-0.0009790399195413278,0.00852468812069206,-0.002825363461727011,0.001972760531372555,-0.03173756582394764
254,2419,55.11451055786705,-1.2171945819828736,0.5,78.54965912448039,-0.09696319973155035,-0.00243443005135219,0.0030342858353254874,0.007988329373576391,0.003775586535049859,0.0016264362486760704
255,2428,55.33270405543505,-1.2171945819828736,0.5,78.54625852844475,-0.10071337256698298,0.004594566438220678,0.01780925435046727,-0.008456837285198072,-0.013976191709102805,0.002282821196121574
256,2437,55.55088810690295,-1.2171945819828736,0.5,78.54285793240912,-0.09209351936122029,-0.008918542802841883,-0.028952120980605418,0.005155366142191777,0.00634287010007099,0.0017393662027719537
257,2447,55.76906271227075,-1.2171945819828736,0.5,78.53945733637349,-0.07785462659203508,-0.005456041078135363,-0.001887215557061424,-0.0032180711612476475,0.00784574631265014,0.009050621456398813
258,2457,55.98722787153846,-1.2171945819828736,0.5,78.53605674033786,-0.1011767426020662,0.00016006010752700359,-0.005986130192497209,-0.002943404900701409,0.013084036612469093,0.016068416376835253
259,2466,56.20538358470606,-1.2171945819828736,0.5,78.53265614430222,-0.10053192137082029,0.0017741616427375628,-0.0035483327981323714,-0.0024614943089281455,0.0147585453679154,-0.009193082526303686
260,2476,56.423529851773566,-1.2171945819828736,0.5,78.52925554826659,-0.08522602916087657,0.011577795276994405,0.008080562927582163,-0.001895419569811867,-0.0037240644799889228,-0.0005373998235116427
261,2485,56.641666672740975,-1.2171945819828736,0.5,78.52585495223096,-0.1044236453534358,-0.0004314214339468428,-0.008342878974947586,-0.021227573796937002,-0.015360322099293411,0.006343974980344816
262,2494,56.85979404760828,-1.2171945819828736,0.5,78.52245435619533,-0.10375395194225123,0.019036242803263215,-0.000039107770427752536,-0.022559968544323853,0.010123352130239629,0.010160392474252449
263,2504,57.07791197637549,-1.2171945819828736,0.5,78.5190537601597,-0.09535323035883374,0.002814121828465463,-0.019036082732465365,-0.019108325065002114,-0.006010912333322376,0.004725329245242098
264,2514,57.2960204590426,-1.2171945819828736,0.5,78.51565316412406,-0.09104793584780398,0.003584611359196751,-0.004261556190534988,0.010500990346465327,0.006692468182447337,-0.004897444556978046
265,2523,57.51411949560961,-1.2171945819828736,0.5,78.51225256808843,-0.08678230662592304,-0.0016273018241265414,-0.0033669006754521026,-0.0007514503278497466,-0.0035536392277817318,-0.005536715441297396
266,2533,57.73220908607652,-1.2171945819828736,0.5,78.5088519720528,-0.10764111018088439,-0.016349149702643947,0.005340158936100415,0.00010043202253245258,0.008153121825932004,-0.010054577942441547
267,2542,57.95028923044334,-1.2171945819828736,0.5,78.50545137601716,-0.090094906023667,-0.003924913300463832,-0.005686073491168391,-0.0009972224027771494,0.004948716868137481,0.007153085163121206
268,2551,58.16835992871005,-1.2171945819828736,0.5,78.50205077998153,-0.1297028697391774,-0.013280288256427138,0.008829559518574748,0.00802926791770139,-0.013041960418857855,-0.006355171239055564
269,2561,58.38642118087667,-1.2171945819828736,0.5,78.4986501839459,-0.09339025333103622,0.013585633541786482,-0.004275854506753693,0.021639445016861224,-0.00521816127747901,0.00011154559730291238
270,2570,58.604472986943186,-1.2171945819828736,0.5,78.49524958791027,-0.10241436503975615,0.0002567721197517196,-0.001941093211573698,-0.008152000311119532,0.0049147631725988804,-0.0004610233567301401
271,2580,58.822515346909604,-1.2171945819828736,0.5,78.49184899187463,-0.10799927985296048,0.011737123292002162,-0.00893273138317193,-0.004850671949491265,0.023464806170537582,0.00680222214944665
272,2589,59.04054826077592,-1.2171945819828736,0.5,78.488448395839,-0.11108976804330942,-0.011583306596830234,0.0015991411717688265,0.004791411760152798,0.0037846367756744575,-0.0031782583028598455
273,2599,59.258571728542144,-1.2171945819828736,0.5,78.48504779980337,-0.0976369074089711,-0.007674163855484398,-0.008665746887675768,0.005114941365016438,0.0015909643611585742,-0.007193915808124869
274,2608,59.476585750208265,-1.2171945819828736,0.5,78.48164720376774,-0.10234183237158781,0.013098146623686626,-0.0006036556486363477,0.005826066158297278,-0.012848724729796123,-0.017806654813794894
275,2618,59.694590325774286,-1.2171945819828736,0.5,78.4782466077321,-0.07695984678309978,-0.005080892083525658,-0.013859889023872642,0.004962861509476312,-0.01281905845432155,0.0028321272175055867
276,2627,59.912585455240205,-1.2171945819828736,0.5,78.47484601169647,-0.10885377915555766,0.003799197822183763,0.000040927660717717927,-0.007757415093252434,0.005568994710272406,-0.007755438116183126
277,2637,60.13057113860603,-1.2171945819828736,0.5,78.47144541566084,-0.08354396709539094,0.007375377046792987,-0.009199035047993595,0.016864347326256423,0.005275691481036332,0.011078979592240868
278,2646,60.34854737587175,-1.2171945819828736,0.5,78.4680448196252,-0.10615013891522179,0.010925789182625906,0.010729371431744088,-0.0011867140348132102,0.007315630199559548,-0.002601541725312515
279,2656,60.566514167037376,-1.2171945819828736,0.5,78.46464422358957,-0.08920214222187076,-0.020042366757697373,-0.0010625456198191106,-0.005176703972613228,0.009638565750675824,-0.006332568036151227
280,2665,60.784471512102904,-1.2171945819828736,0.5,78.46124362755394,-0.09171063182349985,0.020100886742957753,0.010178386857577373,0.018705069691359707,0.0076863694701070585,-0.009323000366079214
281,2675,61.00241941106833,-1.2171945819828736,0.5,78.45784303151831,-0.08439611730928548,-0.01902589292959273,0.008213761961655689,-0.008940591471383626,0.012242365126758723,0.004146774134993192
282,2684,61.22035786393366,-1.2171945819828736,0.5,78.45444243548268,-0.1125525794812008,-0.002709472086042128,0.00887575885297907,0.0019229656288145337,0.004142259817410337,0.009499005403542133
283,2694,61.43828687069889,-1.2171945819828736,0.5,78.45104183944704,-0.1003926969615301,0.013474488344313253,-0.012195082820534525,-0.0061991436070463765,0.005013386635642795,-0.005983282852411313
284,2703,61.65620643136402,-1.2171945819828736,0.5,78.44764124341141,-0.08481821210314422,-0.012742454677726747,0.007221120734435511,-0.0012360257578572697,0.00776326449900285,-0.003132461358616235
285,2713,61.87411654592905,-1.2171945819828736,0.5,78.44424064737578,-0.10789870500285048,-0.009622024305563467,0.005720328003461097,-0.00044961551151503237,-0.002844031556152037,0.006958232153049291
286,2722,62.092017214393984,-1.2171945819828736,0.5,78.44084005134015,-0.10454019823180252,0.0006030708760499889,0.0059145926345891015,0.007907457951355081,0.0033173094866343635,-0.009617266802885768
287,2731,62.30990843675882,-1.2171945819828736,0.5,78.43743945530451,-0.09968145804571259,-0.008140039190435454,0.0015854063978972736,-0.001876597785418578,-0.01589990074246374,-0.02131532167856546
288,2741,62.52779021302355,-1.2171945819828736,0.5,78.43403885926888,-0.07524234026174557,0.0026817924112561065,-0.0022279447463920236,-0.000652955141028445,-0.010655944729996895,-0.0009174150395603022
289,2750,62.74566254318819,-1.2171945819828736,0.5,78.43063826323325,-0.1061131500368506,0.011283404532312299,-0.019219689128208987,0.009424362708221362,-0.03014938190556006,-0.0014569137794131456
290,2760,62.963525427252726,-1.2171945819828736,0.5,78.42723766719762,-0.09546614702818954,-0.016642943514282752,-0.015928319074629257,-0.0008940968599841919,-0.004291787807381395,-0.009730402221385189
291,2769,63.18137886521716,-1.2171945819828736,0.5,78.42383707116198,-0.08762587255951672,0.0037866959542959457,0.007081961176509462,0.014506917112855662,0.013022221205150446,-0.0009620376976594981
292,2779,63.399222857081504,-1.2171945819828736,0.5,78.42043647512635,-0.10317286788632678,-0.013255120142099978,-0.0028367577638466848,-0.0020238612200336285,-0.007406823070288889,-0.0015511060607853574
293,2788,63.617057402845745,-1.2171945819828736,0.5,78.41703587909072,-0.0872065325814173,-0.01369333803627832,0.0065921289373650745,0.011721860922045356,-0.008959317808364996,0.010659290224139065
294,2798,63.834882502509885,-1.2171945819828736,0.5,78.41363528305509,-0.0934668440960563,-0.0031191790262458745,-0.01351746888544973,-0.014267370586760744,-0.0013908462155250035,-0.0022614024906561585
295,2807,64.05269815607393,-1.2171945819828736,0.5,78.41023468701945,-0.09504465899417541,0.006245801539017719,0.0005169691952083971,0.0012452878467181642,0.006765978355583683,0.009030294418376373
296,2816,64.27050436353787,-1.2171945819828736,0.5,78.40683409098382,-0.10714023683806792,-0.015196249503077285,-0.00497219453030803,0.007841994634572944,-0.014741854160838343,-0.006830970476364674
297,2826,64.48830112490171,-1.2171945819828736,0.5,78.40343349494819,-0.09819048442878457,0.009885691164133284,-0.00027808605277677463,-0.02276198359289227,-0.008152806244726855,0.008675665236500825
298,2835,64.70608844016546,-1.2171945819828736,0.5,78.40003289891256,-0.11391911240633229,-0.018126603038260206,-0.01001722822340681,-0.006702458895351378,-0.014863200374599289,0.0033572821454827453
299,2845,64.9238663093291,-1.2171945819828736,0.5,78.39663230287692,-0.09621396592789916,0.01930069529763526,0.008400420085055801,-0.0036066282251045042,0.0020823331961386617,-0.0038453808119639004
300,2854,65.14163473239265,-1.2171945819828736,0.5,78.39323170684129,-0.09376369136663584,-0.005811223450296454,0.003279684355930822,-0.011888188271630948,-0.00016425913735325023,-0.001771139607097753
301,2864,65.3593937093561,-1.2171945819828736,0.5,78.38983111080566,-0.0929325100995679,-0.002118360167208241,-0.0030338206733661294,0.005559560799672673,-0.0065943244175025156,-0.013170012429277341
302,2873,65.57714324021944,-1.2171945819828736,0.5,78.38643051477003,-0.11109660175069405,-0.0020526978868051814,0.00434902852173647,0.006149178609530157,0.01227080705774448,0.010149037620753365
303,2882,65.79488332498269,-1.2171945819828736,0.5,78.3830299187344,-0.07426009860286309,0.010338129821611862,0.012893286603147446,-0.0192849345444255,0.0028761075334757208,-0.0021778772306182727
304,2892,66.01261396364585,-1.2171945819828736,0.5,78.37962932269876,-0.10133379705321384,0.016565195964612606,-0.0002393304898483784,-0.0034694691148265937,-0.0015655977923813432,0.013480650710302744
305,2901,66.2303351562089,-1.2171945819828736,0.5,78.37622872666313,-0.1004854054129665,-0.0023514729922878763,0.00696890564786312,0.004368745980656308,-0.002748878042210295,0.009742536049208023
306,2911,66.44804690267185,-1.2171945819828736,0.5,78.3728281306275,-0.08327711008481069,-0.011803371357928935,-0.007636473610684661,-0.0012980035582852718,0.00946710897174245,-0.008178382513715575
307,2920,66.66574920303471,-1.2171945819828736,0.5,78.36942753459186,-0.10015946101019493,0.014917917680764853,-0.007334707332369871,0.0027213266379936254,0.004661703060416602,0.012507958209702214
308,2929,66.88344205729746,-1.2171945819828736,0.5,78.36602693855623,-0.1097227904715665,0.00780653026938228,-0.0007639563278532753,0.005186663486882513,0.007589641227340393,0.004700334275757416
309,2939,67.10112546546011,-1.2171945819828736,0.5,78.3626263425206,-0.09911816592397057,0.014249302980443431,0.00835171243959111,0.003147156996214231,-0.03122235130008944,-0.0030447109660148375
310,2948,67.31879942752178,-1.2171945819828736,0.4999993760642444,78.35922574648497,-0.09266983639311178,0.013372497048548647,-0.02422671183763927,0.010994109634972056,-0.014853703792697922,-0.000009099569843110933
311,2958,67.53646394348067,-1.2171945819828736,0.49999812824688533,78.35582515044933,-0.10846408349026468,-0.0040654975847175135,-0.015476384696351238,0.005930358976773999,-0.030906481861314807,-0.0013479572430744689
312,2967,67.75411901333499,-1.2171945819828736,0.4999962566020751,78.3524245544137,-0.07673552298742689,0.004112361469938683,-0.010840544268922553,0.022096542846647273,-0.002685662098544083,0.011842689015036004
313,2977,67.97176463708294,-1.2171945819828736,0.49999376118396577,78.34902395837807,-0.11303301962002799,-0.0015191894492126907,-0.006903149420945001,-0.01384283613009748,0.0008474529579598918,-0.003768302076349856
314,2986,68.18940081472275,-1.2171945819828736,0.4999906420467096,78.34562336234244,-0.08721908704945286,0.028586104696226543,-0.0059518213486607395,-0.00686326797495621,0.004774622992712708,0.007017060455202689
315,2995,68.40702754625262,-1.2171945819828736,0.4999868992444588,78.3422227663068,-0.1078029317594431,0.02193173552215489,0.003864603551116839,-0.0014734893180133265,-0.003058008913874721,0.005330887161409297
316,3005,68.62464483167078,-1.2171945819828736,0.4999825328313656,78.33882217027117,-0.08957864669184241,-0.0150102902966659,-0.006364351947296101,0.012248409741676599,-0.007230424188172428,0.020794930335445473
317,3014,68.84225267097543,-1.2171945819828736,0.4999775428615822,78.33542157423554,-0.10854038450845785,0.015333293415776253,-0.011465321093799326,-0.009403348437229378,-0.000028758822211836364,-0.006233771319046501
318,3024,69.05985106416479,-1.2171945819828736,0.49997192938926077,78.3320209781999,-0.09386873346851464,-0.010215419793800282,-0.003346596738914067,-0.004133895682539794,0.0001869363533318061,-0.017766501913818504
319,3033,69.27744001123708,-1.2171945819828736,0.49996569246855355,78.32862038216427,-0.08715313550352073,0.010421934703992818,0.0016781074426833135,-0.002008093131465293,0.0016922706696910544,0.00746119863750271
320,3043,69.4950195121905,-1.2171945819828736,0.4999588321536128,78.32521978612864,-0.09453825032715964,-0.0015161551276284852,-0.00046945622599995577,-0.007431706009682815,-0.0014962451723424378,0.007333515420441155
321,3052,69.71258956702326,-1.2171945819828736,0.49995134849859074,78.32181919009301,-0.09649222025515916,0.0036402721466557925,-0.0027379523176677893,0.002368862019896979,-0.01284613280465468,0.009581654452769735
322,3061,69.93015017573359,-1.2171945819828736,0.49994324155763964,78.31841859405738,-0.07303408731452192,-0.009198743832553927,-0.006038562902207782,-0.010078672796563297,-0.00504085880949104,0.007331442810974217
323,3071,70.14770133831969,-1.2171945819828736,0.4999345113849117,78.31501799802174,-0.10154898332236685,0.00044713422719248034,0.0020310098124484127,0.020173908411092248,0.013350967035612567,0.017296655371663874
324,3081,70.36524305477978,-1.2171945819828736,0.49992515803455917,78.31161740198611,-0.09608422118830003,0.007334292011802486,-0.013567623538634069,-0.0036800488962903883,-0.012908019876723648,0.012371271089945443
325,3090,70.58277532511208,-1.2171945819828736,0.49991518156073433,78.30821680595048,-0.0896012993929869,0.0027470182302996057,-0.0025864008793963266,0.012782006206356562,0.004260480552965499,0.004661598335024064
326,3099,70.8002981493148,-1.2171945819828736,0.4999045820175894,78.30481620991485,-0.09439095045193285,0.001307117725127037,-0.03480877509395505,0.008053456616206416,0.00689207159056268,0.006160998968326105
327,3109,71.01781152738616,-1.2171945819828736,0.4998933594592767,78.30141561387921,-0.11433761070072415,-0.005012170933698332,-0.004194285756547612,-0.00466069748174552,0.0024625677082316835,0.017470208460308338
328,3118,71.23531545932437,-1.2171945819828736,0.4998815139399485,78.29801501784358,-0.10026536195487684,-0.015846199808828048,-0.025505266492545843,-0.02002685108152237,0.0033056747662936815,0.0021816005537538224
329,3128,71.45280994512765,-1.2171945819828736,0.49986904551375705,78.29461442180795,-0.09546435961600434,-0.009496580201316777,-0.0008865747059183266,0.0029643657375737716,-0.009222959738311165,-0.005103213683233425
330,3137,71.67029498479423,-1.2171945819828736,0.4998559542348546,78.29121382577232,-0.10911968202477945,-0.0033312235614063592,0.002093833582177993,-0.02541164605234038,-0.01564712488243996,-0.00024860321720252725
331,3147,71.8877705783223,-1.2171945819828736,0.49984224015739354,78.28781322973668,-0.09552553241760725,-0.0031759808507046587,-0.0037596731623312594,0.009124213572007961,-0.008264330185676188,-0.01285754843349063
332,3156,72.1052367257101,-1.2171945819828736,0.499827903335526,78.28441263370105,-0.08587821074956313,0.018464043086246513,-0.0053132355037269026,-0.007310561707713798,-0.02229613647519297,-0.003825972187624454
333,3166,72.32269342695582,-1.2171945819828736,0.4998129438234044,78.28101203766542,-0.08709693942311263,0.008500120537627828,-0.014797247529343804,-0.0024814479747416844,0.005898715083494069,0.0017612478582350035
334,3175,72.5401406820577,-1.2171945819828736,0.499797361675181,78.27761144162979,-0.09454387932893879,0.011382042783490606,-0.007124065117341635,-0.002549115246339408,0.02306307527498005,-0.0001626903554458675
335,3184,72.75757849101394,-1.2171945819828736,0.49978115694500813,78.27421084559415,-0.10865829464447016,-0.007388877104214321,0.00493189794988279,0.007068350481443652,0.012184293779287534,0.005729888308857266
336,3194,72.97500685382278,-1.2171945819828736,0.4997643296870381,78.27081024955852,-0.0970050543880594,0.0018769918397014572,0.013455832579357802,0.002652939278706472,-0.03038096552514473,0.017260487986588257
337,3203,73.19242577048242,-1.2171945819828736,0.4997468799554232,78.26740965352289,-0.11018641573041649,-0.0020326808609668337,-0.00018767775745482523,-0.006372374858785204,-0.00824195099576622,-0.00011894009758980898
338,3213,73.40983524099107,-1.2171945819828736,0.4997288078043158,78.26400905748726,-0.10250802069086182,0.009694083110029275,-0.017469715172951962,0.002383521120432398,-0.013836067954591956,-0.010380054162964015
339,3222,73.62723526534698,-1.2171945819828736,0.49971011328786813,78.26060846145162,-0.09177082663544973,0.00013928753680883448,-0.008130842821685715,0.009618425491766695,0.003462862036451444,-0.012217127289515847
340,3232,73.84462584354834,-1.2171945819828736,0.4996907964602326,78.25720786541599,-0.0996208784102936,-0.007451947292416028,-0.012049424879959029,0.014241126739998718,0.015542216618681257,-0.000016461924668085946
341,3241,74.06200697559339,-1.2171945819828736,0.49967085737556155,78.25380726938036,-0.09767346914937632,-0.006778947256992494,0.006076317870947949,-0.006624760656164479,0.0030762768101736896,0.01939049407924752
342,3251,74.27937866148034,-1.2171945819828736,0.49965029608800726,78.25040667334473,-0.08852982585061418,-0.015115981851754359,0.006583518611014142,-0.004560345811334523,0.011091580834641963,-0.010133486855252512
343,3260,74.49674090120739,-1.2171945819828736,0.4996291126517221,78.2470060773091,-0.0983660924350473,-0.006690332199059394,-0.0006113194812333361,-0.013738484537291124,0.006617914475483449,-0.004692630541658041
344,3270,74.71409369477279,-1.2171945819828736,0.4996073071208585,78.24360548127346,-0.10143831421898641,-0.005805195647260558,-0.006663920210200539,-0.0037562043221306208,0.013605830576646381,-0.007747437834202626
345,3279,74.93143704217474,-1.2171945819828736,0.4995848795495687,78.24020488523783,-0.08555922388892341,-0.013722974180833349,-0.026107059584311806,-0.003050808911605517,0.0032262601069983233,0.006068109814684794
346,3289,75.14877094341146,-1.2171945819828736,0.49956182999200516,78.2368042892022,-0.09690898623911202,0.004747773909758101,-0.02469048184406906,0.0007170271514496958,0.003305184997913144,-0.029098928826776442
347,3298,75.36609539848118,-1.2171945819828736,0.4995381585023202,78.23340369316657,-0.09619648381874209,-0.014015719462949624,-0.007568761008205217,-0.00018950359233920624,-0.01844273840554031,0.01391302398068222
348,3308,75.58341040738212,-1.2171945819828736,0.49951386513466617,78.23000309713093,-0.09477640712557713,-0.01703930676906128,-0.007023802589503068,0.003983277022356801,0.008336789117186863,-0.002655425590491819
349,3317,75.80071597011249,-1.2171945819828736,0.4994889499431955,78.2266025010953,-0.10100932175394307,0.005222922840929519,-0.013463838490138734,-0.011835844440008722,0.002455521846920294,-0.005863979996385022
350,3327,76.01801208667052,-1.2171945819828736,0.49946341298206054,78.22320190505967,-0.07885291167507473,0.0054138390627972415,-0.007943449449314535,0.006528176525754913,0.0009092162907011959,-0.00416597867918917
351,3336,76.23529875705442,-1.2171945819828736,0.4994372543054137,78.21980130902404,-0.10556845112303231,-0.005030816526336164,-0.001587818358098559,-0.01436016460643965,0.0034251377261000867,0.010723331456728043
352,3346,76.45257598126243,-1.2171945819828736,0.49941047396740734,78.2164007129884,-0.09349766543496213,-0.012198379442739812,-0.012438781312764133,0.013033171249020828,0.0021818204422244893,-0.000814721725842289
353,3355,76.66984375929276,-1.2171945819828736,0.4993830720221939,78.21300011695277,-0.09020618979802339,0.01855893442199912,0.001425263765570982,-0.0054381313373480554,-0.004135168635411775,0.014337117267176298
354,3364,76.88710209114363,-1.2171945819828736,0.49935504852392576,78.20959952091714,-0.09490551634854016,-0.0005779037580526765,-0.0022310736907183966,-0.023823457302461493,0.010066521331442724,0.005786132769908052
355,3374,77.10435097681327,-1.2171945819828736,0.49932640352675534,78.2061989248815,-0.106648394650176,0.0022140745252226843,-0.013600751156105473,-0.017501373148545232,0.010472369913933166,-0.01865286840910701
356,3383,77.32159041629988,-1.2171945819828736,0.49929713708483503,78.20279832884587,-0.10449384612627377,-0.0004193321129934012,-0.0017302188746655183,-0.004522256335611339,-0.006986594935357982,0.000615290963069178
357,3393,77.53882040960171,-1.2171945819828736,0.49926724925231725,78.19939773281024,-0.11719631821564563,0.000943515546300515,-0.013588800779153306,-0.0031375787362798104,-0.01286133167181509,0.011504248545503786
358,3402,77.75604095671697,-1.2171945819828736,0.49923674008335445,78.19599713677461,-0.09821134575403348,0.0069440702513319935,-0.004037301314675256,0.0015305831104581772,0.014846270772209649,0.011797175746630495
359,3412,77.97325205764389,-1.2171945819828736,0.49920560963209903,78.19259654073898,-0.08645989758054001,0.006944878442944907,0.0075233324497771745,0.010151748000137585,0.01575431397030823,-0.014635646244347189
360,3421,78.19045371238069,-1.2171945819828736,0.4991738579527034,78.18919594470334,-0.08230440233419475,-0.017264961097584845,-0.02065502883550774,0.0026271799372276977,-0.009264027109674961,0.006285223829376565
361,3431,78.40764592092559,-1.2171945819828736,0.49914148509932005,78.18579534866771,-0.08036534743270642,0.0033954883300685345,-0.002684960727377641,0.013649508420288808,0.0070560391399645895,0.0021667720410570835
362,3440,78.6248286832768,-1.2171945819828736,0.4991084911261014,78.18239475263208,-0.0967900390606339,-0.0019529512409493725,-0.006289873292882893,0.002519614239387139,-0.0005966969911614089,-0.009902040677613902
363,3450,78.84200199943257,-1.2171945819828736,0.4990748760871999,78.17899415659645,-0.09218198428549412,-0.012314338124584283,-0.0017465129255716666,0.010911494053647787,0.0018331108417060306,0.015074849535721475
364,3459,79.05916586939111,-1.2171945819828736,0.499040640036768,78.17559356056081,-0.11085913451429762,-0.00205292822235322,-0.009327362269890605,0.009140949868527471,0.01581636834877423,0.007349715743651317
365,3468,79.27632029315065,-1.2171945819828736,0.4990057830289582,78.17219296452518,-0.09421138071322462,-0.008955611497173159,0.013067456546555185,-0.0032554982108177937,-0.0006913135521688169,-0.004154551576950188
366,3478,79.49346527070941,-1.2171945819828736,0.49897030511792295,78.16879236848955,-0.09721473445470116,0.002234901186990664,0.005250094700047414,0.00894821554694811,-0.01836882417270025,-0.011794296510046223
367,3487,79.71060080206561,-1.2171945819828736,0.49893420635781466,78.16539177245392,-0.08675838395183601,0.012345806486679801,-0.003908935153037297,-0.009856544992764652,-0.00440037871025361,-0.006187562231733505
368,3497,79.92772688721749,-1.2171945819828736,0.49889748680278584,78.16199117641828,-0.08751748156210043,-0.0021157337878751964,-0.0049792876574883006,-0.0014954385826851748,0.012223165924722378,0.0004013932878921286
369,3506,80.14484352616327,-1.2171945819828736,0.498860146506989,78.15859058038265,-0.09770908758632729,0.00026833825750666016,-0.02092995452903939,0.013815455625584918,0.0052531319845943595,-0.0024264345004999547
370,3516,80.36195071890117,-1.2171945819828736,0.49882218552457663,78.15518998434702,-0.09577886108423558,0.011865092376087717,0.0000029249690198657197,-0.010242008845753834,0.004235114149368682,-0.005445079816186164
371,3525,80.57904846542941,-1.2171945819828736,0.49878360390970117,78.15178938831139,-0.08275730505176822,-0.0014830795556449704,-0.0084229157398587,-0.013097667291360967,-0.0044438147500029945,-0.0072773570848692175
372,3535,80.79613676574623,-1.2171945819828736,0.49874440171651513,78.14838879227575,-0.09329489365238114,-0.00868967322774399,-0.009233943104831412,0.011518794266615453,0.0005593159141395475,0.008831386950160496
373,3544,81.01321561984984,-1.2171945819828736,0.498704578999171,78.14498819624012,-0.081471793048052,-0.011361835399041668,-0.01769363762378757,-0.017942415804779125,0.0034633202522459197,0.005441360222373858
374,3553,81.23028502773849,-1.2171945819828736,0.4986641358118213,78.14158760020449,-0.10387391254946003,0.005802323537849601,-0.009494161000483788,0.01762647294279025,0.005581279376856831,-0.009397263944798244
375,3563,81.44734498941038,-1.2171945819828736,0.4986230722086185,78.13818700416886,-0.0798834257542347,0.010268424214356002,0.0043736264467742845,-0.009073726455739324,-0.01948671994193931,-0.0014889347835801516
376,3572,81.66439550486376,-1.2171945819828736,0.4985813882437152,78.13478640813322,-0.09487494122689656,-0.009467832231575768,-0.005383505515017616,-0.003174464817688946,-0.01593755043797609,-0.008922777608573221
377,3582,81.88143657409685,-1.2171945819828736,0.49853908397126384,78.13138581209759,-0.07546008965798451,0.0045375736553458675,-0.014352358267496345,-0.005299509826385479,-0.009788549886228088,0.013843877193662825
378,3591,82.09846819710788,-1.2171945819828736,0.498496159445417,78.12798521606196,-0.08498796048569049,0.009603073343499843,-0.010456817897504338,-0.012170221057181048,-0.022431788105547357,-0.0016992254353272102
379,3601,82.31549037389506,-1.2171945819828736,0.49845261472032715,78.12458462002633,-0.09581688051152983,-0.00905169603222292,-0.00728763949144117,0.012094822733309467,-0.019423809418480893,0.0027775680285357708
380,3610,82.53250310445662,-1.2171945819828736,0.4984084498501469,78.1211840239907,-0.09072675697051073,0.015345008832900485,-0.018085985043620287,-0.014604513163469661,0.01247074392624889,0.005730921898182841
381,3619,82.7495063887908,-1.2171945819828736,0.4983636648890287,78.11778342795506,-0.09341921038188741,0.009622789549957787,-0.024655223382693648,0.0003691023513362258,-0.004499734628350405,0.0069077601926457975
382,3629,82.96650022689585,-1.2171945819828736,0.4983182598911252,78.11438283191943,-0.10401463111271902,-0.008848576690613926,-0.014360932994283981,0.001578464404585024,-0.0032910944481543366,0.0019202342855273815
383,3638,83.18348461876995,-1.2171945819828736,0.4982722349105889,78.1109822358838,-0.06955505347130637,0.0003291868010070681,-0.013420236640781676,0.0045433756181809505,-0.01240790028062684,0.009489771727396816
384,3648,83.40045956441136,-1.2171945819828736,0.49822559000157235,78.10758163984816,-0.08951660591212285,-0.006623015370511288,-0.02170750796305199,0.000344469949760576,-0.0031153796425638283,0.007707861588543433
385,3657,83.6174250638183,-1.2171945819828736,0.4981783252182281,78.10418104381253,-0.10597131814687452,0.004102278369928611,-0.005071970087848945,-0.0014373536347160902,-0.008625642153410145,-0.0007352932913098077
386,3667,83.83438111698901,-1.2171945819828736,0.4981304406147087,78.1007804477769,-0.11663841079777187,0.017265230469691237,-0.009587974017240606,0.007544942027443772,0.0011699301404529017,0.010734464073228868
387,3676,84.0513277239217,-1.2171945819828736,0.4980819362451668,78.09737985174127,-0.08021784020381827,-0.0004436084028325543,-0.010738201642653277,-0.004432404075160209,-0.0011298823000842502,0.005588895669248619
388,3686,84.26826488461461,-1.2171945819828736,0.4980328121637549,78.09397925570563,-0.09521901605365803,0.009687309884505073,0.003643341398037127,0.00430997727734796,0.013776935158262966,-0.01050075420375134
389,3695,84.48519259906597,-1.2171945819828736,0.4979830684246256,78.09057865967,-0.09001750405814131,0.003757883451955239,-0.008647222159511431,-0.027268439108171356,-0.006168397794164532,0.0008840870266300057
390,3705,84.70211086727402,-1.2171945819828736,0.4979327050819315,78.08717806363437,-0.08719477289513375,-0.0012659450879263384,-0.012287293290417625,-0.0024342828443484773,0.00715860032014801,0.001800859368260683
391,3714,84.91901968923698,-1.2171945819828736,0.4978817221898252,78.08377746759874,-0.06629447908143676,0.0006875216257312693,0.007401470641545263,-0.016661065344850075,-0.0036354301750084407,-0.007905483364087688
392,3724,85.13591906495307,-1.2171945819828736,0.4978301198024592,78.0803768715631,-0.08779497204347304,0.0022349636099274067,-0.000046252429522068185,0.0022564690246638162,0.0009814293318579708,0.0013885796603497487
393,3733,85.35280899442054,-1.2171945819828736,0.49777789797398625,78.07697627552747,-0.08433625512813211,0.01029814034522032,-0.011330144135923974,-0.02433456817917571,-0.015710348573643923,-0.01002510505858928
394,3743,85.56968947763761,-1.2171945819828736,0.4977250567585589,78.07357567949184,-0.10020464436261582,0.0060647218191504475,-0.020580907030409372,-0.003103728612599725,-0.007262441779363079,0.02443733928262124
395,3752,85.78656051460251,-1.2171945819828736,0.4976715962103297,78.0701750834562,-0.08512810218192281,0.0015129039039637115,-0.000002762722473129836,-0.015427865880425646,0.0019208866787782768,0.006111372419603636
396,3762,86.00342210531349,-1.2171945819828736,0.4976175163834513,78.06677448742057,-0.08475417274147327,0.0025881298572838704,0.0002993849062009656,0.007592793305105438,-0.012680583203727423,0.009260602993617154
397,3772,86.22027424976876,-1.2171945819828736,0.49756281733207636,78.06337389138494,-0.09289396481827432,0.003909745781593286,-0.0064628297375621735,-0.0017589369426705135,-0.004744711240045868,-0.020310687342843862
398,3781,86.43711694796656,-1.2171945819828736,0.49750749911035747,78.05997329534931,-0.08744026949499993,0.0009872053324419868,-0.01307644783634447,-0.00023296881434184958,-0.006540582871153151,0.005536880614311196
399,3791,86.65395019990511,-1.2171945819828736,0.49745156177244726,78.05657269931368,-0.07961748639594333,-0.0017267405757370332,0.004347742189620472,0.010800404640645554,0.008978888259453716,-0.0015462301155654591
400,3800,86.87077400558266,-1.2171945819828736,0.49739500537249837,78.05317210327804,-0.10099376037961308,0.00932101702657357,-0.004485205692905681,-0.007760237154176374,0.008831641606425527,-0.010535727516346587
401,3809,87.08758836499744,-1.2171945819828736,0.4973378299646634,78.04977150724241,-0.09814185645969474,0.0055412102605686174,-0.0168553527546274,0.0007243683046126451,-0.008226809979817595,0.007760394165221169
402,3819,87.30439327814769,-1.2171945819828736,0.4972800356030951,78.04637091120678,-0.09265759757832887,0.015971643256458452,-0.00604069065368769,-0.002939015904865222,0.004870182578011717,0.00583472252390968
403,3828,87.52118874503162,-1.2171945819828736,0.497221622341946,78.04297031517115,-0.10529251865616515,0.008638338799131028,-0.01025910294356255,-0.006354399948768875,-0.005847828807679712,-0.011270584159369258
404,3838,87.73797476564748,-1.2171945819828736,0.49716259023536885,78.03956971913551,-0.10416439231434531,-0.003689926804998846,0.0061691806858998124,-0.003376174152280392,0.001175104460564694,-0.0010561659964258578
405,3847,87.95475133999349,-1.2171945819828736,0.49710293933751626,78.03616912309988,-0.11088980954870575,-0.0048008766382130535,0.006008200017675993,-0.00807029992780987,0.003526878101482524,-0.0034031365191010098
406,3857,88.1715184680679,-1.2171945819828736,0.49704266970254096,78.03276852706425,-0.08127934098545898,-0.0013401938918991274,-0.007993789028394508,0.0033510451066635235,0.010998474499090279,-0.0026502340774946765
407,3866,88.38827614986894,-1.2171945819828736,0.49698178138459553,78.02936793102862,-0.09089316453133306,0.005447437337023406,0.002118110029296764,0.0006797485824405952,0.0004473670424555758,-0.00006984328244540418
408,3876,88.60502438539484,-1.2171945819828736,0.4969202744378327,78.02596733499298,-0.08973074759058106,0.018174519646188894,-0.00817832647092484,0.009073785970310104,0.013255425370196305,0.012789335717755234
409,3885,88.82176317464383,-1.2171945819828736,0.4968581489164052,78.02256673895735,-0.10950043624265739,-0.010453450219078623,-0.00033236396883153455,0.0058707993870459494,0.013136179963863334,0.00802500873605756
410,3895,89.03849251761416,-1.2171945819828736,0.4967954048744656,78.01916614292172,-0.09594543926405573,0.013972487193803871,-0.00507612642681475,-0.0028782478728642865,0.021978267177418163,-0.011551309063100293
411,3904,89.25521241430405,-1.2171945819828736,0.4967320423661667,78.01576554688609,-0.08973355773746927,0.01536226866680971,-0.01383764951206421,0.015105113082007472,0.014422059650321712,-0.005164461813150944
412,3914,89.47192286471176,-1.2171945819828736,0.4966680614456611,78.01236495085045,-0.0916716511023828,0.001171008505762852,-0.005535962659194396,-0.004530751997490418,0.0003665268688941628,0.005292735634283226
413,3923,89.68862386883549,-1.2171945819828736,0.4966034621671016,78.00896435481482,-0.09901137962768222,0.0028664822958930918,0.00238724135511691,-0.0009079474735865755,-0.010363777742850789,-0.005053432576131725
414,3933,89.9053154266735,-1.2171945819828736,0.49653824458464085,78.00556375877919,-0.08614795188571428,0.008743757950376912,-0.0027899633646740643,-0.0010470419753105438,0.004873000626455525,0.005400830340593711
415,3942,90.12199753822401,-1.2171945819828736,0.49647240875243154,78.00216316274356,-0.08901152290171604,-0.005276880628066824,-0.033170255213905916,0.006275614045821566,0.0035596573235327496,-0.016436440541977678
416,3952,90.33867020348526,-1.2171945819828736,0.49640595472462645,77.99876256670792,-0.08503535829430667,0.0016564648557929485,-0.008447169372551659,0.008929849297085108,0.002541905906001848,0.00012190367758825252
417,3961,90.5553334224555,-1.2171945819828736,0.4963388825553782,77.99536197067229,-0.09672851353783947,0.010626906444515303,0.0020057690902000706,0.0027966070700528793,-0.003710802869686202,0.0031332982582339152
418,3971,90.77198719513297,-1.2171945819828736,0.49627119229883965,77.99196137463666,-0.11639360766118732,-0.005549989407238466,-0.025618475334342274,-0.003707547473991024,0.015003579052794863,-0.004513518642887213
419,3980,90.98863152151588,-1.2171945819828736,0.49620288400916346,77.98856077860103,-0.08305446976553184,0.0013203226141124517,-0.010979100767447366,-0.017242032600331074,0.007947725470338595,-0.009316186403574062
420,3990,91.20526640160249,-1.2171945819828736,0.49613395774050234,77.9851601825654,-0.1062737600124014,0.00037190743411297705,0.0032299353003470924,-0.004693537932444085,0.007354614463592467,0.011037165749093731
421,3999,91.42189183539102,-1.2171945819828736,0.4960644135470091,77.98175958652976,-0.10360133356311765,-0.006289230300782821,-0.009095412299738108,0.009753324949091152,-0.0024667971498243814,0.008804266747016868
422,4009,91.63850782287973,-1.2171945819828736,0.49599425148283643,77.97835899049413,-0.10051701153095792,-0.00854328736068101,0.0005313626553799496,-0.005713058619456363,0.009123519014099735,0.008909994372380802
423,4018,91.85511436406684,-1.2171945819828736,0.4959234716021371,77.9749583944585,-0.10970184541102562,-0.005384506118446471,0.006874086259311848,-0.004832578982780586,-0.010181407030137738,0.00465453626215981
424,4028,92.07171145895059,-1.2171945819828736,0.4958520739590639,77.97155779842286,-0.08877006842129419,-0.01240740928263309,-0.015098169953532315,-0.015186968090408395,-0.0059074698803463065,0.004268378500661999
425,4037,92.28829910752921,-1.2171945819828736,0.4957800586077695,77.96815720238723,-0.1078254035676396,0.009305958955880695,-0.00728613898810077,0.00951402193156132,-0.012706596832707754,-0.016219216841689997
426,4047,92.50487730980096,-1.2171945819828736,0.4957074256024068,77.9647566063516,-0.10733191060432062,0.010462606183835736,-0.0051648975931073236,-0.007613549472357394,-0.002008619738993193,0.001348989355751736
427,4056,92.72144606576407,-1.2171945819828736,0.49563417499712853,77.96135601031597,-0.0861582044662642,-0.003967344837634496,-0.0022588029205821147,-0.011762809287535963,-0.00214054126179613,0.018715948371434584
428,4065,92.93800537541678,-1.2171945819828736,0.4955603068460874,77.95795541428033,-0.0951820436680256,0.0032333513325910903,-0.018264569032330577,0.003114699157327971,0.008727813822344097,-0.006735511404096143
429,4075,93.15455523875733,-1.2171945819828736,0.4954858212034362,77.9545548182447,-0.1087303967188228,-0.003733784007887252,-0.013615013866535214,0.007479669049184356,-0.014031394318109638,0.009418069031873953
430,4084,93.37109565578395,-1.2171945819828736,0.49541071812332776,77.95115422220907,-0.08412616766030333,-0.003477471153179053,-0.0018008062153921974,0.00223751607500407,-0.005421500603736167,-0.00009184284645030844
431,4094,93.58762662649488,-1.2171945819828736,0.49533499765991484,77.94775362617344,-0.09210612696892533,0.015183290860780702,-0.0052765461317341505,0.009473536159782142,-0.006541021284008329,-0.002486612476473746
432,4103,93.80414815088837,-1.2171945819828736,0.4952586598673503,77.9443530301378,-0.08102123179788254,0.014453353819344636,-0.011029325253277392,0.002604871963578891,-0.01499330351216592,-0.0009987690019275218
433,4113,94.02066022896265,-1.2171945819828736,0.49518170479978685,77.94095243410217,-0.09052799828448183,0.0052751817913798005,-0.013004878015574255,-0.0016080373725617825,0.001477196810882486,0.027936395193705152
434,4122,94.23716286071597,-1.2171945819828736,0.49510413251137736,77.93755183806654,-0.10194039555684314,0.004670359227731388,-0.009536156874931548,-0.014519131200267018,0.00423455120985274,0.0037741835854516177
435,4132,94.45365604614656,-1.2171945819828736,0.4950259430562746,77.93415124203091,-0.09680947094670238,0.003509100295826765,-0.006734521040237297,0.007710750449171119,0.013435360147875108,0.021170211074280992
436,4141,94.67013978525267,-1.2171945819828736,0.4949471364886315,77.93075064599527,-0.09405167666343897,-0.002224410514401529,-0.010210832814879145,-0.006526159111491699,0.006033611468201916,-0.004467574613666314
437,4151,94.88661407803254,-1.2171945819828736,0.49486771286260073,77.92735004995964,-0.110551053868715,-0.004919525551271097,0.0036081504425000913,-0.002893332262157697,-0.004823249090767737,-0.006072260231080603
438,4160,95.10307892448441,-1.2171945819828736,0.4947876722323352,77.92394945392401,-0.08581179073242869,-0.009079974242142045,-0.009498343215246601,-0.0022346862075612647,0.016428067978590474,-0.00409589746637605
439,4170,95.31953432460652,-1.2171945819828736,0.49470701465198774,77.92054885788838,-0.09677850820295272,-0.001303426472702344,-0.008123393253005744,0.012639191377806603,-0.004903281347149289,-0.0027219013928970652
440,4179,95.53598027839712,-1.2171945819828736,0.4946257401757112,77.91714826185274,-0.11047056243283015,0.0004991080531944492,-0.013585377186963808,-0.009963797176423761,0.0020338280103553434,0.010572865717918704
441,4189,95.75241678585444,-1.2171945819828736,0.4945438488576584,77.91374766581711,-0.1271718589422004,-0.008564881851877053,-0.013285700562904273,0.010963403010451957,-0.005993125292893619,0.0027648728605855293
442,4198,95.96884384697672,-1.2171945819828736,0.49446134075198217,77.91034706978148,-0.09422138085536651,0.024596248657123728,0.001119323500124802,-0.008936744138234377,-0.005524850939795255,0.025519941367006933
443,4208,96.18526146176222,-1.2171945819828736,0.4943782159128354,77.90694647374585,-0.10142841498680279,0.00568445541044654,0.009461089722765173,0.012663519568434554,-0.0045110517368027415,0.005718843723372691
444,4217,96.40166963020917,-1.2171945819828736,0.49429447439437085,77.90354587771021,-0.09110319164343549,0.0017300160651293243,-0.0036890377166196057,-0.02300106837780014,0.006877413167546833,0.009050048729500864
445,4227,96.61806835231582,-1.2171945819828736,0.4942101162507415,77.90014528167458,-0.08899401553345201,-0.0006543110682376575,0.006454696061933437,-0.0008741148838514123,-0.006426823081149569,-0.008328134611618994
446,4236,96.8344576280804,-1.2171945819828736,0.4941251415361002,77.89674468563895,-0.08871737996741415,0.019193063506038388,-0.007508150643916815,-0.01728066958833372,0.00928909647689724,0.0014359768334456739
447,4246,97.05083745750116,-1.2171945819828736,0.4940395503045998,77.89334408960332,-0.07907045095754568,0.0007724996129922536,-0.014999060526824448,-0.007359974035640774,-0.001207618727766805,0.014293564183365007
448,4255,97.26720784057635,-1.2171945819828736,0.49395334261039314,77.88994349356769,-0.09984201602186005,-0.013225458523311667,-0.003651102753843989,-0.011699526033379166,0.006114382455028276,0.00022537455416282975
449,4265,97.4835687773042,-1.2171945819828736,0.49386651850763313,77.88654289753205,-0.08232329864792827,0.00005602136802001825,-0.005258491699437008,0.007858277478204872,-0.01754381011419185,0.010686076985804076
450,4274,97.69992026768297,-1.2171945819828736,0.49377907805047266,77.88314230149642,-0.09307949087178671,0.014013160917958992,-0.004445252940617937,-0.001762879470075513,0.019744836232879377,0.0006675418388147659
451,4284,97.9162623117109,-1.2171945819828736,0.49369102129306464,77.87974170546079,-0.09797505864519748,-0.013456125705331716,-0.015301639040765622,0.004497356780000238,-0.0020703466405042606,-0.000663026510616882
452,4293,98.13259490938621,-1.2171945819828736,0.49360234828956195,77.87634110942516,-0.07809700477803896,0.002697306523662437,-0.010270028510328513,0.005780684018418878,-0.0017920968566109982,-0.0035186241821577547
453,4303,98.34891806070719,-1.2171945819828736,0.49351305909411747,77.87294051338952,-0.09707868724283449,0.00842517340529664,0.01354143882040271,0.006968651377478813,0.01295538646730671,0.012243319298086782
454,4313,98.56523176567205,-1.2171945819828736,0.49342315376088414,77.86953991735389,-0.07430905144428819,0.00825878142345543,0.0062203448954432985,0.00863525260206812,-0.01110824142809818,-0.005454171562646076
455,4322,98.78153602427905,-1.2171945819828736,0.49333263234401487,77.86613932131826,-0.10612239838036026,-0.0012784803005119283,-0.004294621662595077,-0.009783463967639081,0.008088258115132654,0.013438885517794295
456,4332,98.99783083652643,-1.2171945819828736,0.49324149489766256,77.86273872528263,-0.08915615243558325,-0.003964405571704257,-0.00012959715085569725,-0.0027601912898541536,-0.017650670101565756,0.008523277698165549
457,4342,99.21411620241244,-1.2171945819828736,0.4931497414759802,77.85933812924699,-0.11577415292003183,0.012356755717643993,-0.004572631179055743,0.0007956339229438398,0.01046668697349903,0.005857711180632255
458,4351,99.43039212193533,-1.2171945819828736,0.4930573721331206,77.85593753321136,-0.07981928277060307,0.005668587328196619,-0.011580808586108236,0.007116534026794637,0.020997346597372228,-0.00227178193211979
459,4361,99.64665859509333,-1.2171945819828736,0.4929643869232368,77.85253693717573,-0.09063588691683251,0.013485498697422504,0.019988022111381978,-0.0082464917860901,-0.010841924124734793,-0.010392325681613706
460,4370,99.8629156218847,-1.2171945819828736,0.49287078590048167,77.8491363411401,-0.10220979057845006,-0.02143299297600096,-0.014817291414489332,0.016023220279909572,-0.00613444026079507,0.005457381408999599
461,4380,100.07916320230768,-1.2171945819828736,0.4927765691190082,77.84573574510446,-0.0974437703943174,0.002149859555894936,-0.005372335683031925,-0.005277581140841104,0.002285075173069448,0.0028368474226146997
462,4389,100.29540133636053,-1.2171945819828736,0.49268173663296927,77.84233514906883,-0.10121497150197933,-0.005767744224354962,-0.010105958329202167,-0.009174290560921896,0.010051901298568793,-0.003617488782570826
463,4399,100.51163002404148,-1.2171945819828736,0.49258628849651787,77.8389345530332,-0.09585277860859898,0.008886427229968229,0.003151248963880955,0.031813261656065274,-0.006876992220119803,-0.00018690144990087435
464,4408,100.7278492653488,-1.2171945819828736,0.49249022476380694,77.83553395699757,-0.11311620213916156,-0.012537035110090806,-0.009460421570989676,-0.0053452762930981355,0.005787853879152143,0.020208697228682796
465,4418,100.94405906028071,-1.2171945819828736,0.4923935454889895,77.83213336096193,-0.1123759903451128,0.015400084489196638,0.0006040201408698898,-0.005454763615953035,0.0007047446027940295,0.00020496538115326508
466,4427,101.16025940883547,-1.2171945819828736,0.49229625072621847,77.8287327649263,-0.0892124570545468,0.009669276933273062,-0.0149282577611047,0.003824672417778636,-0.0016437194355159398,0.01161627764893903
467,4437,101.37645031101133,-1.2171945819828736,0.49219834052964684,77.82533216889067,-0.10165477686924543,-0.006763598457556506,-0.012873158805488972,0.008551451225271576,-0.010751694074511922,0.00458969368000855
468,4446,101.59263176680653,-1.2171945819828736,0.4920998149534276,77.82193157285504,-0.08829263059392803,0.0009034840161709327,0.005659085919940993,-0.01937166714552851,-0.012707001953116411,-0.0011775883667996363
469,4456,101.80880377621934,-1.2171945819828736,0.49200067405171366,77.8185309768194,-0.10076571481102542,-0.002749409558070933,-0.011549814075447997,0.011578298803895437,0.0019583645570196958,0.007696602330373002
470,4465,102.02496633924798,-1.2171945819828736,0.4919009178786581,77.81513038078377,-0.09231433861668129,0.005902659035343834,0.014306041878019895,0.0012017022664708142,0.0006678878307358547,-0.0017123302928697803
471,4475,102.24111945589071,-1.2171945819828736,0.4918005464884138,77.81172978474814,-0.09156447606209862,0.0024001741421999785,-0.016572801691118442,0.008665933548812364,0.005450684586507751,0.012880809029941626
472,4484,102.45726312614579,-1.2171945819828736,0.49169955993513387,77.8083291887125,-0.09689293118283193,-0.006733689494493417,-0.014344660141875493,-0.017950637666718047,-0.004727611326429167,0.005330469782954295
473,4494,102.67339735001146,-1.2171945819828736,0.49159795827297126,77.80492859267687,-0.08323465642724005,-0.0017488712917775504,-0.007982255095250267,-0.002280188495156724,0.0077729835764539035,0.015068044334220647
474,4503,102.88952212748596,-1.2171945819828736,0.491495741556079,77.80152799664124,-0.11803717065373724,0.01112217224841635,0.00963130519417275,0.006657544642577019,-0.000003550873356707488,-0.006668607865036746
475,4513,103.10563745856756,-1.2171945819828736,0.4913929098386101,77.79812740060561,-0.10836990546674465,0.006030318660800861,-0.0016256450660332338,-0.001270074246590485,0.006787868009845916,-0.010992990271225175
476,4522,103.3217433432545,-1.2171945819828736,0.49128946317471756,77.79472680456998,-0.10120761958622358,-0.01152000839402235,-0.0015750137475400534,0.0022782114969411267,0.014446912306234194,-0.007911908856048202
477,4532,103.53783978154503,-1.2171945819828736,0.4911854016185544,77.79132620853434,-0.09273406559804752,0.015928984197588876,-0.02047009787514223,-0.004880869150566457,0.022994370557315482,-0.007271961649532678
478,4541,103.7539267734374,-1.2171945819828736,0.49108072522427365,77.78792561249871,-0.10383387098526389,-0.03212785908719134,-0.007117999632190452,0.0021724471397020994,0.012584130344957884,0.008410462770423727
479,4551,103.97000431892987,-1.2171945819828736,0.49097543404602834,77.78452501646308,-0.0874683023995032,-0.009681156614587414,-0.026322161006438,0.019014522847111852,0.001790941842465813,-0.00901234771453551
480,4560,104.18607241802067,-1.2171945819828736,0.4908695281379715,77.78112442042745,-0.09235791878908911,-0.0008196419994206031,-0.005855925938117157,0.0033265222299747243,0.0030933224297250263,-0.02249282177695223
481,4570,104.40213107070808,-1.2171945819828736,0.4907630075542562,77.77772382439181,-0.09530393686712492,-0.014866769361744572,-0.015019897962053259,-0.01484683270344105,0.0015466581579450722,-0.015496007294931152
482,4579,104.61818027699033,-1.2171945819828736,0.4906558723490355,77.77432322835618,-0.10059391217337228,-0.01176248792391358,-0.015579223960988315,-0.005684324890255629,-0.0050432102720890165,-0.004341639822418198
483,4589,104.83422003686567,-1.2171945819828736,0.4905481225764624,77.77092263232055,-0.0954257461857586,0.001462899657929485,-0.010312765961972014,0.020081793589333884,0.004233448693175048,-0.010356650070117173
484,4598,105.05025035033238,-1.2171945819828736,0.49043975829069,77.76752203628492,-0.080382148119066,-0.00024292222750414328,0.006255816688300622,-0.010397530224495289,0.00961804025220705,-0.00597251799369413
485,4608,105.26627121738868,-1.2171945819828736,0.4903307795458713,77.76412144024928,-0.09962521854955304,0.009210010105456714,0.011136954714924232,0.0029735933131801334,-0.006330116866782609,-0.012930669125088784
486,4617,105.48228263803284,-1.2171945819828736,0.4902211863961594,77.76072084421365,-0.099741779300537,0.0016045507554525043,0.0122375597931489,0.0000002470691730153277,-0.007174062534743665,0.014196638400010632
487,4627,105.69828461226311,-1.2171945819828736,0.4901109788957074,77.75732024817802,-0.0834941670170571,-0.005182641990158519,-0.008751627924417646,-0.02126273096678066,-0.0242553479657732,-0.009817062311686966
488,4637,105.91427714007773,-1.2171945819828736,0.4900001570986684,77.75391965214239,-0.09063456561778677,-0.003902708871017566,-0.009910511623050752,-0.0089858688565353,-0.01087476876042392,-0.020093206154159854
489,4646,106.13026022147497,-1.2171945819828736,0.4898887210591954,77.75051905610675,-0.08914505904782981,0.004748746670290252,-0.00435409563356808,0.005889077967811399,-0.0027300220000120337,0.007894956376411908
490,4656,106.34623385645308,-1.2171945819828736,0.48977667083144155,77.74711846007112,-0.0828491884841471,-0.0018443211847187205,0.003052763161740581,-0.007142010792765899,0.013862787815138427,0.010079858957842991
491,4665,106.5621980450103,-1.2171945819828736,0.48966400646955993,77.74371786403549,-0.10171542595606284,0.025884448488242635,-0.006066577065166772,-0.00188062769111908,0.0010720570394541409,0.007970522085334435
492,4674,106.7781527871449,-1.2171945819828736,0.4895507280277036,77.74031726799986,-0.0795779045681238,-0.008065550949540139,0.0060566352044325155,-0.01176351812914584,-0.004565772536491338,0.0027029636385163132
493,4684,106.99409808285513,-1.2171945819828736,0.4894368355600257,77.73691667196422,-0.08590935097143593,-0.0005174206667378226,-0.018478565005984507,-0.00898592359569799,-0.015035089061699486,0.005488275230279195
494,4693,107.21003393213925,-1.2171945819828736,0.4893223291206793,77.73351607592859,-0.10261889113947262,0.005628946351314923,-0.018563480904620688,0.00840786977548518,0.008538932183949906,-0.0046189759911974574
495,4703,107.42596033499551,-1.2171945819828736,0.48920720876381757,77.73011547989296,-0.09849037120744795,0.0038449705034614484,-0.009706323958873298,0.006745926074624094,0.009358888657845899,-0.009660535746595384
496,4712,107.64187729142215,-1.2171945819828736,0.4890914745435936,77.72671488385733,-0.10213402982929524,0.00018251140723620418,-0.010425725030510518,-0.006508646474383904,0.008823725866672351,-0.004579591762126477
497,4722,107.85778480141744,-1.2171945819828736,0.4889751265141605,77.7233142878217,-0.08449249770685,-0.017830146724072227,0.002075707243903038,-0.0029212452947390607,0.005865906115490639,-0.006362010631358308
498,4731,108.07368286497963,-1.2171945819828736,0.48885816472967136,77.71991369178606,-0.08458871335797288,0.012489327086507206,0.008550791220496347,-0.007819790091667965,-0.0013430508115276727,0.014980497934253285
499,4741,108.28957148210698,-1.2171945819828736,0.4887405892442794,77.71651309575043,-0.0970636568736107,0.007845813700518903,-0.0012221818636305153,0.001006917394654845,-0.010385245794644964,-0.006167862936747528
500,4750,108.50545065279775,-1.2171945819828736,0.48862240011213764,77.7131124997148,-0.09087566084691691,0.008197855055706632,0.007355423042817669,-0.015926246345240286,0.01120057007638524,0.001707867506783894
501,4760,108.72132037705019,-1.2171945819828736,0.4885035973873993,77.70971190367916,-0.10841137927313262,0.004315538054175815,0.001190170856729243,0.0017081846563666233,0.005677603413966566,-0.01938381229750242
502,4769,108.93718065486256,-1.2171945819828736,0.4883841811242175,77.70631130764353,-0.08574279558779244,0.014449735927075604,-0.00765762239282477,-0.012499380811503136,-0.005402606682609493,-0.01492481648261275
503,4779,109.1530314862331,-1.2171945819828736,0.48826415137674545,77.7029107116079,-0.09341558524505145,0.010860346576127118,-0.0019817609571699856,-0.00481930913086175,0.004374327898429508,-0.0026502081473555993
504,4788,109.3688728711601,-1.2171945819828736,0.4881435081991362,77.69951011557227,-0.0722831213876633,-0.012116692584367357,0.0016058622599653691,-0.009573065791163222,0.010385759227737965,-0.006382274061896702
505,4798,109.58470480964178,-1.2171945819828736,0.488022251645543,77.69610951953663,-0.08998841497520904,-0.005298062103485366,-0.015720726682213356,0.001732223983290408,0.0008658704413296695,-0.004266135141917213
506,4807,109.80052730167641,-1.2171945819828736,0.487900381770119,77.692708923501,-0.09783634919003349,-0.002426247857769199,0.004550610812722625,-0.0008882795919758995,0.02333526901901352,-0.002747666920403697
507,4817,110.01634034726226,-1.2171945819828736,0.48777789862701737,77.68930832746537,-0.10830647841324023,-0.002035667333433276,0.01863803944849345,-0.006430080314538822,-0.029631618088739348,-0.0113208150142247
508,4826,110.23214394639757,-1.2171945819828736,0.48765480227039126,77.68590773142974,-0.09179878902309307,0.0010679933084959275,0.0259806554380161,0.002981426871973585,-0.017909722801890918,0.005417386419560477
509,4836,110.44793809908062,-1.2171945819828736,0.4875310927543939,77.6825071353941,-0.10780923586709869,0.001769702181285792,-0.009500602328305479,-0.009969661821187428,0.011417279514765743,-0.0099595889399531
510,4845,110.66372280530965,-1.2171945819828736,0.4874067701331784,77.67910653935847,-0.12163856619622064,0.003897934821864441,-0.002988846136882322,-0.008594825275261545,-0.002145038288891338,0.0037319650054201126
511,4855,110.87949806508291,-1.2171945819828736,0.487281834460898,77.67570594332284,-0.0930901379427993,0.012760372223986299,-0.012775142759027296,-0.007206297002385659,0.0042858988289837105,0.004647305677294419
512,4865,111.09526387839868,-1.2171945819828736,0.4871562857917059,77.6723053472872,-0.09871349449148219,0.007338500934004524,-0.002425268556201306,0.018560195179933764,-0.012079637072875982,-0.005733555501442655
513,4874,111.31102024525521,-1.2171945819828736,0.4870301241797553,77.66890475125157,-0.10155642513929965,-0.005435163409256269,0.01986298328632785,0.006344441356248438,-0.004384584165501389,-0.0013332098922404086
514,4884,111.52676716565075,-1.2171945819828736,0.48690334967919935,77.66550415521594,-0.09945625622463786,-0.0003346934315314048,0.003380578227019768,-0.015368484164681466,-0.019929898374432698,-0.005180596143836103
515,4894,111.74250463958357,-1.2171945819828736,0.48677596234419135,77.66210355918031,-0.10336261267175276,0.004414473555344846,-0.005700400099693992,-0.004555827145997075,-0.0035325121155282318,0.0016205601001245062
516,4903,111.95823266705193,-1.2171945819828736,0.48664796222888446,77.65870296314468,-0.10332982925828853,0.00029233802178420005,0.0015173399513038173,0.0018302661297577016,0.005975847046171063,-0.004057200483625289
517,4913,112.1739512480541,-1.2171945819828736,0.4865193493874319,77.65530236710904,-0.09776546280715523,0.010869265572427114,-0.005978828042803909,0.003093371330295057,-0.0030419796993381787,-0.011207258295143803
518,4922,112.38966038258832,-1.2171945819828736,0.4863901238739869,77.65190177107341,-0.08312698315365667,0.0022169571020012515,-0.0005532819011437031,-0.01734402356213635,-0.0008745910989368088,-0.014081215267335457
519,4932,112.60536007065285,-1.2171945819828736,0.4862602857427027,77.64850117503778,-0.10401533456447178,-0.016344068916047807,-0.002020345153865604,-0.006291686432091695,-0.0010423878204043964,-0.009066375563429674
520,4941,112.82105031224596,-1.2171945819828736,0.4861298350477325,77.64510057900215,-0.09411380505008642,0.004877603056173025,-0.017472732085237315,0.0007862018723791642,-0.018441109004340074,0.0024148602613863093
521,4951,113.03673110736591,-1.2171945819828736,0.4859987718432296,77.64169998296651,-0.08246652812162217,0.011028519111926302,0.019513196358956902,-0.0023847365462155465,0.009984688125025775,-0.009693713327460836
522,4960,113.25240245601096,-1.2171945819828736,0.4858670961833472,77.63829938693088,-0.09997162614907379,0.0028702802319071495,-0.028248066664148867,-0.0018624108979891087,0.0011379687319174694,0.010321275756439357
523,4970,113.46806435817936,-1.2171945819828736,0.4857348081222386,77.63489879089525,-0.09636459982773661,0.012065960704726481,-0.004547642390289925,-0.01159711563216195,0.0017154451939020063,-0.0028951129475768777
524,4979,113.6837168138694,-1.2171945819828736,0.48560190771405704,77.63149819485962,-0.09514413137974399,-0.00703942651454344,-0.013375142751045573,0.00634624318837282,0.00028786439763457455,-0.02230426810157747
525,4989,113.89935982307931,-1.2171945819828736,0.48546839501295574,77.62809759882398,-0.09843046448026904,0.004952981387520654,0.010065805754229582,-0.004855438237128764,-0.00600928904771521,0.007376312410133979
526,4998,114.11499338580737,-1.2171945819828736,0.485334270073088,77.62469700278835,-0.09823121780928921,0.012104169115426295,-0.011408294312955737,-0.004328788493935001,-0.008279757341287794,-0.0031801334317083834
527,5007,114.33061750205184,-1.2171945819828736,0.48519953294860707,77.62129640675272,-0.08373725633987343,0.012377520178039293,-0.0023518277034340718,-0.004485501459569884,0.004215294352898036,0.0006472973183989631
528,5017,114.54623217181097,-1.2171945819828736,0.4850641836936662,77.61789581071709,-0.08336166126271748,0.011345407144200025,0.00720124483937116,-0.0011955565208738995,0.0018408631671701621,-0.007847408576049986
529,5026,114.76183739508303,-1.2171945819828736,0.4849282223624187,77.61449521468145,-0.09658794975510966,-0.0005381173781574013,-0.01569515247628226,-0.004650131336098362,-0.02330850982055938,0.0007217905757566995
530,5036,114.9774331718663,-1.2171945819828736,0.4847916490090179,77.61109461864582,-0.10130670731007128,0.004217518775333056,-0.018308483237131506,0.006336077143405082,-0.015302464125431835,0.0033215928457636925
531,5045,115.193019502159,-1.2171945819828736,0.484654463687617,77.60769402261019,-0.0820251735414171,-0.0025400380804151703,0.0193443053775739,-0.002267698277737241,0.0073626057286789275,-0.008238992660513103
532,5055,115.40859638595944,-1.2171945819828736,0.48451666645236935,77.60429342657456,-0.0868937736704813,-0.010770371354561867,0.004349310447882811,0.011160198779204057,-0.009387389410669678,0.01979158996265531
533,5064,115.62416382326586,-1.2171945819828736,0.48437825735742823,77.60089283053892,-0.08910374152024174,0.00162937804677798,-0.013258311472111692,-0.017856695910105167,0.028783055363846396,-0.007854435213013832
534,5074,115.83972181407653,-1.2171945819828736,0.484239236456947,77.59749223450329,-0.09510182246349141,0.008035003073962908,0.0011498652349094937,-0.00565041831480577,-0.008538271144523261,0.006117436804538082
535,5083,116.0552703583897,-1.2171945819828736,0.4840996038050789,77.59409163846766,-0.09036345333650915,0.01189050360336579,0.0005189290541572876,0.016096335027948584,0.005577558340453038,-0.013130320950067947
536,5093,116.27080945620366,-1.2171945819828736,0.48395935945597723,77.59069104243203,-0.094571389907294,-0.0023512565403818997,0.017520245825233538,-0.007757362764697718,0.005229134145217719,0.00012200236984806685
537,5102,116.48633910751666,-1.2171945819828736,0.4838185034637954,77.5872904463964,-0.10029543164205801,0.01129673890628114,-0.016957091953203787,-0.00406712458229813,0.004572868331897947,0.005816837474011587
538,5112,116.70185931232695,-1.2171945819828736,0.4836770358826867,77.58388985036076,-0.08758928639958365,-0.0014498002875786352,-0.02048452882112272,-0.00585824570407931,-0.001059165757457949,-0.008587347576244188
539,5121,116.91737007063281,-1.2171945819828736,0.48353495676680436,77.58048925432513,-0.07421212396863537,-0.0005652463508112643,-0.013163414535107441,0.012302877733954783,-0.0010453667629403605,-0.008657531261059727
540,5131,117.13287138243251,-1.2171945819828736,0.48339226617030184,77.5770886582895,-0.11844265959223332,0.008154613488941196,0.000676035445328088,0.0021913073596029555,-0.006150316790114031,-0.007834318462158811
541,5140,117.34836324772431,-1.2171945819828736,0.4832489641473324,77.57368806225386,-0.08428957597018501,-0.010348545103891434,-0.007794958422748785,0.013983893602815465,0.0015289304176155654,-0.0033916859466913796
542,5150,117.56384566650647,-1.2171945819828736,0.48310505075204946,77.57028746621823,-0.08636008534033715,0.012229293774833103,-0.005644182790807289,-0.009006663926111266,0.0024375325730035106,-0.0023665894382132284
543,5159,117.77931863877726,-1.2171945819828736,0.4829605260386063,77.5668868701826,-0.09019887710940852,-0.0037672255943314915,0.011785594712524692,-0.0038719802557853453,0.0015460152938200945,-0.0026129760528017998
544,5169,117.99478216453494,-1.2171945819828736,0.48281539006115626,77.56348627414697,-0.10069069300390829,-0.001204275776008018,-0.008148177715300518,0.0023824007758213007,-0.009889125529387343,0.00574890811179737
545,5178,118.21023624377779,-1.2171945819828736,0.4826696428738528,77.56008567811134,-0.09941103397704587,0.004795863702585404,-0.018563363770749894,-0.00014908381563379092,0.007106051409845726,0.002621078444945114
546,5188,118.42568087650406,-1.2171945819828736,0.48252328453084914,77.5566850820757,-0.09078017788562884,0.00030838076113967735,0.003503956076510391,-0.013361081938872837,0.011844667119371129,0.003644359811486165
547,5197,118.64111606271204,-1.2171945819828736,0.4823763150862988,77.55328448604007,-0.09718056477176396,-0.007917424749935204,-0.006289679650845716,0.010195458602693653,0.0024200836297372484,0.005553217115949311
548,5207,118.85654180239999,-1.2171945819828736,0.48222873459435506,77.54988389000444,-0.11272544298371945,0.0015271845783232192,-0.00986509251665767,-0.001043985772831776,0.005460819127176368,-0.008628742390454027
549,5216,119.07195809556616,-1.2171945819828736,0.4820805431091713,77.5464832939688,-0.07700314839675276,0.0013889744734051535,-0.004677069300632889,0.003080196505341191,-0.012328954546670677,-0.009774713507191852
550,5226,119.28736494220882,-1.2171945819828736,0.48193174068490097,77.54308269793317,-0.09552410517527815,-0.004637145317510539,-0.009340686000429435,-0.0103046014645804,0.010334894547370639,-0.020630601409821443
551,5235,119.50276234232625,-1.2171945819828736,0.4817823273756974,77.53968210189754,-0.08535289059502355,0.0062658801810907905,-0.0015466019456652465,-0.008154425207626345,0.0069724816311590495,-0.016923591313643706
552,5245,119.71815029591671,-1.2171945819828736,0.48163230323571393,77.53628150586191,-0.09531372654361338,0.002108740249032886,-0.024087585271914343,0.005949609460869369,0.002648357020640301,0.02108080391209042
553,5254,119.93352880297849,-1.2171945819828736,0.48148166831910405,77.53288090982628,-0.0779898687070617,0.0065796352941979285,-0.0140787568421911,-0.0022638142706839074,-0.004526627568467562,0.017517573179571925
554,5264,120.14889786350982,-1.2171945819828736,0.48133042268002113,77.52948031379064,-0.06574219732448816,0.00941029744260462,-0.0009118031467696807,-0.01683090069616012,-0.004421474433178205,-0.009804498468651194
555,5273,120.36425747750899,-1.2171945819828736,0.4811785663726186,77.52607971775501,-0.09939808074129529,0.0011948522392022257,0.007317527104170302,0.004003583110552731,-0.006917788315375005,-0.0019645407051309812
556,5283,120.57960764497426,-1.2171945819828736,0.48102609945104985,77.52267912171938,-0.09911670522837447,-0.0016995474831813277,-0.010804850579674178,-0.013011592499915648,-0.0005612466334321555,0.0005703403271254586
557,5293,120.7949483659039,-1.2171945819828736,0.4808730219694683,77.51927852568375,-0.08655059015249911,-0.0023678990946799676,-0.00514291180604946,-0.008925710393069351,-0.0033954894581519866,0.012420402394174777
558,5302,121.0102796402962,-1.2171945819828736,0.4807193339820274,77.51587792964811,-0.0926371171319141,-0.010785961537575106,-0.0030318050228095215,0.01608681201535369,-0.001261596974141166,0.01193215377008958
559,5312,121.22560146814942,-1.2171945819828736,0.4805650355428805,77.51247733361248,-0.0919883117495915,0.016035859509939687,-0.010340310476130729,0.013174832411638372,-0.015666030507174904,0.005436914082411422
560,5321,121.44091384946182,-1.2171945819828736,0.4804101267061811,77.50907673757685,-0.10098444821367164,-0.013799427637237098,-0.005243268178088049,0.0031962478014722056,0.014467971076673615,0.003215462025687337
561,5331,121.65621678423167,-1.2171945819828736,0.4802546075260826,77.50567614154122,-0.06659495814055257,0.013965443033212952,-0.005576705289044662,0.01698351765701727,0.006124913448620619,-0.00593442598739009
562,5340,121.87151027245724,-1.2171945819828736,0.4800984780567385,77.50227554550558,-0.1182414790894293,-0.001170533560291965,-0.011103918720046952,-0.008149311669497214,0.009952677516022135,-0.0000803916287912466
563,5350,122.08679431413681,-1.2171945819828736,0.4799417383523022,77.49887494946995,-0.09465714078682899,-0.0043746840739330274,0.0004248678563975178,-0.0009454612583566401,0.0025160909221071046,-0.00340502052626198
564,5359,122.30206890926864,-1.2171945819828736,0.47978438846692717,77.49547435343432,-0.1009385743214562,0.0067363117697692675,-0.005182885924234559,0.004634031317933324,-0.017531997020634425,-0.016590148447631785
565,5369,122.517334057851,-1.2171945819828736,0.47962642845476683,77.49207375739869,-0.09024208413318766,0.007250751793147767,-0.007179830334844139,-0.00041718507799134844,0.0033763797436935335,0.012962487524656743
566,5379,122.73258975988217,-1.2171945819828736,0.4794678583699747,77.48867316136305,-0.10679390170593735,-0.0034443893900462613,-0.011139568472329858,0.00795465268188433,0.0019399668866580243,0.009098532505177228
567,5388,122.94783601536042,-1.2171945819828736,0.4793086782667042,77.48527256532742,-0.11522878888582805,0.019641916927087184,0.006976402758901034,-0.013687503681665238,0.015255765043964644,-0.0018941867882294576
568,5398,123.16307282428403,-1.2171945819828736,0.47914888819910884,77.48187196929179,-0.10187383291650444,0.007508631247312607,0.005676465628288625,-0.027168090111182656,0.021692900880095917,-0.005493395275740003
569,5407,123.37830018665124,-1.2171945819828736,0.47898848822134205,77.47847137325616,-0.08433862610339626,-0.006183501203183941,-0.023810485635830637,-0.007805747816115711,0.01132950890874732,0.005692480154979333
570,5417,123.59351810246037,-1.2171945819828736,0.47882747838755735,77.47507077722052,-0.0974904563814339,-0.011907438026367052,0.0007921265763685013,-0.008556827610273758,-0.016250345997293924,-0.00281712485573272
571,5426,123.80872657170964,-1.2171945819828736,0.4786658587519082,77.47167018118489,-0.10408236558529359,-0.005654635626856921,-0.023475385209385274,-0.007702845467018517,0.008900558007880222,-0.02527576483520507
572,5436,124.02392559439735,-1.2171945819828736,0.47850362936854807,77.46826958514926,-0.06881425264113528,-0.008575248993962142,-0.024524033658077482,-0.009123212925439213,0.008447910953427647,0.007143865796981584
573,5445,124.23911517052179,-1.2171945819828736,0.4783407902916305,77.46486898911363,-0.09924483773406159,0.020026659209826953,0.0032252620990726073,-0.01854570308741592,0.004577277191493922,0.007812797258378933
574,5455,124.4542953000812,-1.2171945819828736,0.478177341575309,77.461468393078,-0.08734869313895295,-0.002150887045737481,-0.002543815842379322,0.016783127700386934,0.008051218634803896,-0.0013998717650535598
575,5464,124.66946598307388,-1.2171945819828736,0.47801328327373704,77.45806779704236,-0.08833195734232854,-0.001493171235790322,0.004881461245789502,-0.001461154735858209,0.0110687612094863,-0.009139525676769884
576,5474,124.88462721949809,-1.2171945819828736,0.47784861544106816,77.45466720100673,-0.0915527416638511,-0.007601781596096553,0.0010414076156497493,0.013996203025490992,0.014397838232087838,-0.009607408420897834
577,5483,125.09977900935209,-1.2171945819828736,0.4776833381314558,77.4512666049711,-0.09533389290182775,0.002202806444353717,-0.010997366176839447,-0.008193732707792414,0.02804986767099046,-0.0014746775360779492
578,5492,125.31492135263417,-1.2171945819828736,0.47751745139905355,77.44786600893546,-0.09358698079569705,-0.00989742849495221,0.006652493127987482,0.003870464324871295,0.005103828919466841,0.0024553705980876247
579,5502,125.53005424934261,-1.2171945819828736,0.47735095529801497,77.44446541289983,-0.07829184528829045,0.00470678780981213,0.021195073318043756,0.003528459613489997,0.008838218829383819,-0.012986297577110084
580,5511,125.74517769947568,-1.2171945819828736,0.4771838498824935,77.4410648168642,-0.10672391436510213,-0.00840320080775747,-0.00658375360256412,-0.0027283938755941527,-0.009051138011901362,0.009356342154270152
581,5521,125.96029170303164,-1.2171945819828736,0.47701613520664277,77.43766422082857,-0.09463908975604336,0.008296657770426312,-0.010755350895759335,0.004424105259705319,-0.019812866880259964,-0.004526527708810404
582,5530,126.17539626000878,-1.2171945819828736,0.47684781132461623,77.43426362479293,-0.08112345810993787,-0.00023134116828974388,-0.015050070477396137,0.0014241970107604848,-0.002705847414639819,0.014151363144782832
583,5540,126.39049137040537,-1.2171945819828736,0.4766788782905675,77.4308630287573,-0.10948191222114961,-0.0063023257919783485,-0.0019176986328397283,0.008576874843448516,-0.01373719653075866,0.009760420968728542
